timestamp,accel_x,accel_y,accel_z,gyro_x,gyro_y,gyro_z,mag_x,mag_y,mag_z,s_accel_z,s_gyro_z,s_mag_x,s_mag_y
4.70527E+12,-1.0392914,1.8793793,8.739746,0,0,0,0,0,0,8.739746,0,0,0
4.70527E+12,-1.1896515,1.9681702,8.929367,-0.20135498,0.23478699,-0.21360779,0,0,0,8.8345565,-0.21360779,0,0
4.70528E+12,-1.2612305,1.9304352,9.41069,-0.22703552,0.17553711,-0.19003296,0,0,0,9.026601,-0.201820375,0,0
4.70528E+12,-1.322586,1.8239899,9.995331,-0.24101257,0.10745239,-0.16567993,0,0,0,9.2687835,-0.18977356,0,0
4.70529E+12,-1.4107513,1.7140198,10.620209,-0.23396301,0.03616333,-0.14207458,19.392395,6.4208984,-50.654602,9.5390686,-0.177848815,19.392395,6.4208984
4.70529E+12,-1.3833618,1.6423798,11.2276,-0.20166016,-0.04034424,-0.11618042,19.392395,6.4208984,-50.654602,10.0366394,-0.165515136,19.392395,6.4208984
4.7053E+12,-1.209137,1.6149902,11.588974,-0.13928223,-0.10798645,-0.08534241,19.392395,6.4208984,-50.654602,10.5685608,-0.13986206,19.392395,6.4208984
4.7053E+12,-1.0046692,1.655365,11.582321,-0.055404663,-0.14978027,-0.053253174,19.392395,6.4208984,-50.654602,11.002887,-0.112506103,19.392395,6.4208984
4.70531E+12,-0.8788452,1.7333832,11.311905,0.043121338,-0.16062927,-0.022201538,19.522095,6.678772,-51.913452,11.2662018,-0.083810424,19.418335,6.47247312
4.70531E+12,-0.8295288,1.8530426,10.973923,0.13877869,-0.13711548,0.002655029,19.522095,6.678772,-51.913452,11.3369446,-0.054864503,19.444275,6.52404784
4.70532E+12,-0.7411194,2.0161743,10.58963,0.21006775,-0.09069824,0.01927185,19.522095,6.678772,-51.913452,11.2093506,-0.027774049,19.470215,6.57562256
4.70532E+12,-0.6082916,2.1537933,10.2164,0.25735474,-0.027175903,0.03413391,19.522095,6.678772,-51.913452,10.9348358,-0.003878785,19.496155,6.62719728
4.70533E+12,-0.56085205,2.2372437,9.819687,0.27685547,0.049331665,0.047088623,19.638062,6.0943604,-49.97711,10.582309,0.016189575,19.5452884,6.56188968
4.70533E+12,-0.6239166,2.330246,9.493698,0.27261353,0.12696838,0.055007935,19.638062,6.0943604,-49.97711,10.2186676,0.031631469,19.5684818,6.44500736
4.70534E+12,-0.7113037,2.3342743,9.265778,0.25524902,0.19537354,0.057388306,19.638062,6.0943604,-49.97711,9.8770386,0.042578125,19.5916752,6.32812504
4.70534E+12,-0.6900177,2.3409576,8.992447,0.233078,0.24017334,0.05419922,19.638062,6.0943604,-49.97711,9.557602,0.049563599,19.6148686,6.21124272
4.70535E+12,-0.6861725,2.3958282,8.748306,0.21884155,0.25430298,0.051712036,20.518494,5.937195,-50.561523,9.2639832,0.053079224,19.8141484,6.06292732
4.70535E+12,-0.6981201,2.4538116,8.4713745,0.210495,0.23852539,0.050323486,20.518494,5.937195,-50.561523,8.9943207,0.053726197,19.9902348,6.03149424
4.70536E+12,-0.77160645,2.4292297,8.153641,0.21313477,0.19407654,0.048294067,20.518494,5.937195,-50.561523,8.7263093,0.052383423,20.1663212,6.00006116
4.70536E+12,-0.8197174,2.4904633,7.794632,0.21939087,0.127182,0.045166016,20.518494,5.937195,-50.561523,8.4320801,0.049938965,20.3424076,5.96862808
4.70537E+12,-0.88557434,2.5144196,7.5152893,0.22692871,0.04449463,0.0438385,20.895386,5.9921265,-51.24359,8.13664856,0.047866821,20.5938724,5.9481813
4.70537E+12,-0.9069519,2.5999756,7.3792114,0.22857666,-0.04727173,0.047714233,20.895386,5.9921265,-51.24359,7.86282964,0.04706726,20.6692508,5.9591676
4.70538E+12,-0.94389343,2.6549377,7.2689056,0.22013855,-0.13380432,0.054626465,20.895386,5.9921265,-51.24359,7.62233586,0.047927856,20.7446292,5.9701539
4.70538E+12,-0.8948517,2.7442322,7.328171,0.19616699,-0.21907043,0.06588745,20.895386,5.9921265,-51.24359,7.45724186,0.051446533,20.8200076,5.9811402
4.70539E+12,-0.8430481,2.7594757,7.6235046,0.15708923,-0.28308105,0.08111572,19.360352,6.7581177,-50.24414,7.42301638,0.058636474,20.5883792,6.14532474
4.70539E+12,-0.7442932,2.8121033,7.8940125,0.10812378,-0.32965088,0.094192505,19.360352,6.7581177,-50.24414,7.49876102,0.068707275,20.2813724,6.29852298
4.7054E+12,-0.67674255,2.8379364,8.168396,0.0592041,-0.3640747,0.1081543,19.360352,6.7581177,-50.24414,7.65659794,0.080795288,19.9743656,6.45172122
4.7054E+12,-0.65200806,2.8126068,8.598846,0.018585205,-0.38417053,0.11567688,18.190002,5.0872803,-50.531006,7.92258602,0.093005371,19.4332888,6.27075198
4.70541E+12,-0.63442993,2.7051697,8.907166,-0.010742188,-0.39523315,0.12173462,18.190002,5.0872803,-50.531006,8.23838502,0.104174805,18.892212,6.08978274
4.70541E+12,-0.52601624,2.6207123,9.101822,-0.03236389,-0.39227295,0.1257019,18.190002,5.0872803,-50.531006,8.5340485,0.113092041,18.658142,5.75561526
4.70542E+12,-0.37876892,2.6653748,9.140457,-0.04598999,-0.3713684,0.1335907,18.190002,5.0872803,-50.531006,8.7833374,0.12097168,18.424072,5.42144778
4.70542E+12,-0.26315308,2.739441,9.14798,-0.05583191,-0.33035278,0.14312744,17.977905,4.446411,-50.74005,8.9792542,0.127966308,18.1475826,4.95910644
4.70543E+12,-0.066711426,2.8613281,9.090851,-0.066604614,-0.27201843,0.15022278,17.977905,4.446411,-50.74005,9.0776552,0.134875488,18.1051632,4.83093258
4.70543E+12,0.05886841,2.9611511,9.061707,-0.08239746,-0.20796204,0.15299988,17.977905,4.446411,-50.74005,9.1085634,0.14112854,18.0627438,4.70275872
4.70544E+12,0.2548828,3.0224304,9.052124,-0.10151672,-0.14916992,0.14805603,17.977905,4.446411,-50.74005,9.0986238,0.145599366,18.0203244,4.57458486
4.70544E+12,0.40423584,3.0382233,9.056976,-0.12388611,-0.09512329,0.13586426,19.08722,5.555725,-51.01013,9.0819276,0.146054078,18.199768,4.6682738
4.70545E+12,0.55659485,3.0677185,9.064514,-0.13505554,-0.06352234,0.117614746,19.08722,5.555725,-51.01013,9.0652344,0.140951539,18.421631,4.8901366
4.70545E+12,0.73117065,3.1360474,9.061813,-0.13395691,-0.0541687,0.09472656,19.08722,5.555725,-51.01013,9.0594268,0.129852295,18.643494,5.1119994
4.70546E+12,0.80326843,3.120163,9.026474,-0.12121582,-0.06460571,0.06437683,19.08722,5.555725,-51.01013,9.0523802,0.112127685,18.865357,5.3338622
4.70546E+12,0.820755,3.0730286,8.886795,-0.101745605,-0.08598328,0.029678345,19.070435,4.1412354,-50.801086,9.0193144,0.088452148,19.083863,5.27282708
4.70547E+12,0.79797363,3.052353,8.723465,-0.08073425,-0.11427307,-0.006256104,19.070435,4.1412354,-50.801086,8.9526122,0.060028076,19.080506,4.98992916
4.70547E+12,0.716629,2.9994354,8.611862,-0.05973816,-0.14755249,-0.045715332,19.070435,4.1412354,-50.801086,8.8620818,0.02736206,19.077149,4.70703124
4.70548E+12,0.61650085,2.9361572,8.479919,-0.05104065,-0.17152405,-0.08305359,19.070435,4.1412354,-50.801086,8.745703,-0.00819397,19.073792,4.42413332
4.70548E+12,0.49969482,2.8843231,8.456467,-0.05342102,-0.18746948,-0.11778259,19.007874,3.7597656,-50.74005,8.6317016,-0.044625854,19.0579228,4.06494144
4.70549E+12,0.46733093,2.8624725,8.575516,-0.06843567,-0.19488525,-0.14820862,19.007874,3.7597656,-50.74005,8.5694458,-0.080203247,19.0454106,3.98864748
4.70549E+12,0.47044373,2.8260803,8.722534,-0.09213257,-0.19056702,-0.17198181,19.007874,3.7597656,-50.74005,8.5692596,-0.113348388,19.0328984,3.91235352
4.7055E+12,0.4972992,2.7116394,8.822815,-0.12080383,-0.17045593,-0.18972778,19.007874,3.7597656,-50.74005,8.6114502,-0.142150878,19.0203862,3.83605956
4.7055E+12,0.5164032,2.6366577,8.848236,-0.1503601,-0.13168335,-0.20240784,18.556213,5.407715,-50.886536,8.6851136,-0.166021728,18.9175418,4.08935548
4.70551E+12,0.47373962,2.5932465,8.86557,-0.17874146,-0.08087158,-0.2111206,18.556213,5.407715,-50.886536,8.7669342,-0.18468933,18.8272096,4.41894536
4.70551E+12,0.40116882,2.5640717,8.848679,-0.20489502,-0.018814087,-0.21705627,18.556213,5.407715,-50.886536,8.8215668,-0.19845886,18.7368774,4.74853524
4.70552E+12,0.28829956,2.5197906,8.84581,-0.23008728,0.04963684,-0.21961975,18.556213,5.407715,-50.886536,8.846222,-0.207986448,18.6465452,5.07812512
4.70552E+12,0.18623352,2.4901886,8.87471,-0.25401306,0.117004395,-0.21777344,17.134094,6.100464,-51.64337,8.856601,-0.21359558,18.2717892,5.5462648
4.70553E+12,0.14480591,2.4735107,8.93837,-0.27700806,0.186203,-0.2066803,17.134094,6.100464,-51.64337,8.8746278,-0.214450072,17.9873654,5.6848146
4.70553E+12,0.118927,2.3979187,9.013687,-0.2955017,0.24861145,-0.18713379,17.134094,6.100464,-51.64337,8.9042512,-0.20965271,17.7029416,5.8233644
4.70554E+12,0.09379578,2.3681183,9.057907,-0.3032074,0.29603577,-0.16293335,17.134094,6.100464,-51.64337,8.9460968,-0.198828126,17.4185178,5.9619142
4.70554E+12,0.12852478,2.4542084,9.138794,-0.30007935,0.32929993,-0.13748169,16.946411,6.163025,-51.745605,9.0046936,-0.182400514,17.0965574,6.1129762
4.70555E+12,0.32237244,2.6209106,9.14856,-0.28320313,0.34518433,-0.11088562,16.946411,6.163025,-51.745605,9.0594636,-0.16102295,17.0590208,6.1254884
4.70555E+12,0.5812988,2.8124084,9.11525,-0.25398254,0.33969116,-0.08494568,16.946411,6.163025,-51.745605,9.0948396,-0.136676026,17.0214842,6.1380006
4.70556E+12,0.81851196,2.976181,8.939606,-0.21200562,0.31103516,-0.06297302,16.946411,6.163025,-51.745605,9.0800234,-0.111843872,16.9839476,6.1505128
4.70556E+12,0.9199524,3.1425781,8.694595,-0.16427612,0.25854492,-0.054519653,18.395996,6.968689,-50.331116,9.007361,-0.090161133,17.236328,6.3241578
4.70557E+12,0.8877716,3.1987915,8.577209,-0.1186676,0.19148254,-0.060928345,18.395996,6.968689,-50.331116,8.895044,-0.074850464,17.526245,6.4852906
4.70557E+12,0.7687988,3.3012085,8.399231,-0.07911682,0.11326599,-0.07923889,18.395996,6.968689,-50.331116,8.7451782,-0.068521118,17.816162,6.6464234
4.70558E+12,0.66244507,3.3318481,8.288223,-0.050476074,0.03060913,-0.1000061,18.395996,6.968689,-50.331116,8.5797728,-0.071533202,18.106079,6.8075562
4.70558E+12,0.5652313,3.3082428,8.235687,-0.037612915,-0.04673767,-0.11769104,18.492126,6.6986084,-51.49536,8.438989,-0.082476806,18.415222,6.91467288
4.70559E+12,0.3885193,3.2973022,8.329086,-0.037002563,-0.13150024,-0.13362122,18.492126,6.6986084,-51.49536,8.3658872,-0.098297119,18.434448,6.86065676
4.70559E+12,0.12496948,3.197174,8.396179,-0.053344727,-0.20445251,-0.14701843,18.492126,6.6986084,-51.49536,8.3296812,-0.115515136,18.453674,6.80664064
4.7056E+12,-0.12687683,3.0503235,8.694855,-0.0796814,-0.2687683,-0.1543274,18.492126,6.6986084,-51.49536,8.388806,-0.130532838,18.4729,6.75262452
4.7056E+12,-0.3033905,2.976059,8.92868,-0.11579895,-0.31707764,-0.15196228,18.492126,6.678772,-51.57776,8.5168974,-0.140924074,18.492126,6.69464112
4.70561E+12,-0.31596375,2.949112,9.059967,-0.15808105,-0.34280396,-0.1375122,18.492126,6.678772,-51.57776,8.6817534,-0.144888306,18.492126,6.69067384
4.70561E+12,-0.18725586,2.9794312,9.284363,-0.19869995,-0.3478241,-0.11364746,18.492126,6.678772,-51.57776,8.8728088,-0.140893554,18.492126,6.68670656
4.70562E+12,0.028762817,3.053299,9.527451,-0.24923706,-0.33137512,-0.08163452,18.492126,6.678772,-51.57776,9.0990632,-0.127816772,18.492126,6.68273928
4.70562E+12,0.22982788,3.2201233,9.705368,-0.2985382,-0.29748535,-0.05317688,18.492126,6.678772,-51.57776,9.3011658,-0.107586668,18.492126,6.678772
4.70563E+12,0.45700073,3.4045258,9.814377,-0.34754944,-0.25120544,-0.030548096,18.492126,6.678772,-51.57776,9.4783052,-0.083303831,18.492126,6.678772
4.70563E+12,0.668808,3.4696045,9.92215,-0.3895111,-0.19673157,-0.018218994,18.492126,6.678772,-51.57776,9.6507418,-0.05944519,18.492126,6.678772
4.70564E+12,0.8415375,3.5808868,10.033936,-0.42268372,-0.14178467,-0.019241333,19.856262,7.3623657,-51.24359,9.8006564,-0.040563965,18.7649532,6.81549074
4.70564E+12,0.7928467,3.623169,10.090347,-0.4468689,-0.09738159,-0.032791138,19.856262,7.3623657,-51.24359,9.9132356,-0.030795288,19.0377804,6.95220948
4.70565E+12,0.7591553,3.615448,10.074783,-0.4644165,-0.06121826,-0.061294556,19.856262,7.3623657,-51.24359,9.9871186,-0.032418823,19.3106076,7.08892822
4.70565E+12,0.6404877,3.527771,10.149704,-0.47052002,-0.039108276,-0.09068298,19.856262,7.3623657,-51.24359,10.054184,-0.0444458,19.5834348,7.22564696
4.70566E+12,0.52612305,3.4278107,10.180145,-0.4654541,-0.031539917,-0.11985779,17.289734,6.5063477,-51.411438,10.105783,-0.064773559,19.3429564,7.1911621
4.70566E+12,0.34588623,3.320877,10.187576,-0.44909668,-0.04273987,-0.14608765,17.289734,6.5063477,-51.411438,10.136511,-0.090142823,18.8296508,7.0199585
4.70567E+12,0.13703918,3.2056274,10.144165,-0.42303467,-0.061035156,-0.16577148,17.289734,6.5063477,-51.411438,10.1472746,-0.116738891,18.3163452,6.8487549
4.70567E+12,-0.014556885,3.1459808,10.013229,-0.39727783,-0.08227539,-0.17504883,17.289734,6.5063477,-51.411438,10.1349638,-0.139489746,17.8030396,6.6775513
4.70568E+12,-0.11961365,3.1284943,10.017761,-0.3703308,-0.10227966,-0.17097473,17.304993,6.5063477,-51.379395,10.1085752,-0.155548096,17.2927858,6.5063477
4.70568E+12,-0.16397095,3.1666412,10.032684,-0.34680176,-0.11810303,-0.15698242,17.304993,6.5063477,-51.379395,10.079083,-0.162973022,17.2958376,6.5063477
4.70569E+12,-0.072006226,3.1960602,10.02594,-0.32112122,-0.13070679,-0.13908386,17.304993,6.5063477,-51.379395,10.0467558,-0.161572264,17.2988894,6.5063477
4.70569E+12,0.03302002,3.2402344,9.965363,-0.29244995,-0.138443,-0.11723328,17.304993,6.5063477,-51.379395,10.0109954,-0.151864624,17.3019412,6.5063477
4.7057E+12,0.0973053,3.2376862,9.895142,-0.26055908,-0.14242554,-0.09625244,17.713928,6.6314697,-50.750732,9.987378,-0.136105346,17.38678,6.5313721
4.7057E+12,0.18348694,3.2068787,9.819687,-0.22592163,-0.14186096,-0.07673645,17.713928,6.6314697,-50.750732,9.9477632,-0.11725769,17.468567,6.5563965
4.70571E+12,0.272583,3.198532,9.637421,-0.18536377,-0.13565063,-0.057266235,17.713928,6.6314697,-50.750732,9.8687106,-0.097314453,17.550354,6.5814209
4.70571E+12,0.37516785,3.2574768,9.406204,-0.14428711,-0.123062134,-0.039978027,17.713928,6.6314697,-50.750732,9.7447634,-0.077493286,17.632141,6.6064453
4.70572E+12,0.48336792,3.2697601,9.094681,-0.104385376,-0.10316467,-0.026062012,18.83545,8.395386,-50.907898,9.570627,-0.059259033,17.9382324,6.98425296
4.70572E+12,0.53201294,3.322586,8.825867,-0.068878174,-0.08180237,-0.014526367,18.83545,8.395386,-50.907898,9.356772,-0.042913818,18.1625368,7.33703622
4.70573E+12,0.5418701,3.3621063,8.620697,-0.04069519,-0.060806274,-0.005355835,18.83545,8.395386,-50.907898,9.116974,-0.028637695,18.3868412,7.68981948
4.70573E+12,0.5208893,3.381134,8.508133,-0.016494751,-0.039993286,0.001739502,18.83545,8.395386,-50.907898,8.8911164,-0.016836548,18.6111456,8.04260274
4.70574E+12,0.48799133,3.3880463,8.464432,0.005065918,-0.02178955,0.007461548,18.739319,8.604431,-50.96283,8.702762,-0.007348633,18.8162238,8.437195
4.70574E+12,0.4699707,3.4145508,8.374649,0.029190063,-0.01222229,0.010696411,18.739319,8.604431,-50.96283,8.5587556,3.0518E-06,18.7969976,8.479004
4.70575E+12,0.55010986,3.5202637,8.212219,0.061798096,-0.015441895,0.012878418,18.739319,8.604431,-50.96283,8.436026,0.005484009,18.7777714,8.520813
4.70575E+12,0.69963074,3.658722,8.115845,0.104400635,-0.03337097,0.01689148,18.739319,8.604431,-50.96283,8.3350556,0.009933472,18.7585452,8.562622
4.70576E+12,0.848053,3.756485,8.097458,0.15242004,-0.064575195,0.016799927,17.887878,9.924316,-51.322937,8.2529206,0.012945557,18.5690308,8.868408
4.70576E+12,1.0136719,3.8368835,7.9806366,0.2078247,-0.1025238,0.008010864,17.887878,9.924316,-51.322937,8.15616152,0.01305542,18.3987426,9.132385
4.70577E+12,1.2587891,3.9231262,7.7191772,0.26768494,-0.13256836,-0.007781982,17.887878,9.924316,-51.322937,8.02506716,0.009359741,18.2284544,9.396362
4.70577E+12,1.4982758,3.993744,7.430588,0.32466125,-0.15238953,-0.028839111,17.887878,9.924316,-51.322937,7.86874096,0.001016236,18.0581662,9.660339
4.70578E+12,1.6164398,4.080551,7.055893,0.37239075,-0.16842651,-0.059936523,17.289734,7.536316,-50.74005,7.65675056,-0.014349365,17.7682492,9.446716
4.70578E+12,1.6086273,4.12442,6.7445984,0.41220093,-0.18292236,-0.10391235,17.289734,7.536316,-50.74005,7.38617864,-0.03849182,17.6486204,8.969116
4.70579E+12,1.4972534,4.1529236,6.3927,0.43980408,-0.19277954,-0.15542603,17.289734,7.536316,-50.74005,7.06859132,-0.071179199,17.5289916,8.491516
4.70579E+12,1.4192047,4.1217346,6.120056,0.44995117,-0.1947174,-0.2106781,17.289734,7.536316,-50.74005,6.74876708,-0.111758423,17.4093628,8.013916
4.7058E+12,1.4315948,4.101074,6.1466827,0.43836975,-0.19277954,-0.25836182,17.411804,7.902527,-50.85907,6.49198602,-0.157662965,17.314148,7.6095582
4.7058E+12,1.4242401,4.038162,6.147049,0.4041748,-0.19145203,-0.2979126,17.411804,7.902527,-50.85907,6.31021722,-0.20525818,17.338562,7.6828004
4.70581E+12,1.333313,3.8829803,6.256653,0.35430908,-0.18334961,-0.33268738,17.411804,7.902527,-50.85907,6.21262814,-0.251013186,17.362976,7.7560426
4.70581E+12,1.2476501,3.7831879,6.265045,0.29486084,-0.15740967,-0.36106873,17.411804,7.902527,-50.85907,6.18709714,-0.292141726,17.38739,7.8292848
4.70582E+12,1.2619934,3.6760101,6.22435,0.23291016,-0.11845398,-0.3782196,17.875671,9.42688,-51.44348,6.20795594,-0.325650026,17.5045774,8.2073976
4.70582E+12,1.159256,3.6437378,6.2103424,0.15853882,-0.0652771,-0.38789368,17.875671,9.42688,-51.44348,6.22068788,-0.351556398,17.5973508,8.5122682
4.70583E+12,0.9007721,3.6240082,6.42749,0.08125305,-0.014511108,-0.38885498,17.875671,9.42688,-51.44348,6.27677608,-0.369744874,17.6901242,8.8171388
4.70583E+12,0.5868225,3.5750732,6.8047333,-0.002349854,0.03186035,-0.38587952,17.875671,9.42688,-51.44348,6.38639214,-0.380383302,17.7828976,9.1220094
4.70584E+12,0.354599,3.5772095,7.208786,-0.086639404,0.06768799,-0.37854004,17.462158,8.7387085,-51.57776,6.57514034,-0.383877564,17.7929684,9.2892457
4.70584E+12,0.19578552,3.5421295,7.5160675,-0.16007996,0.097335815,-0.3667755,17.462158,8.7387085,-51.57776,6.83348384,-0.381588744,17.7102658,9.1516114
4.70585E+12,0.06513977,3.5131683,8.022461,-0.21365356,0.12095642,-0.3456726,17.462158,8.7387085,-51.57776,7.19590756,-0.373144528,17.6275632,9.0139771
4.70585E+12,0.13195801,3.5213776,8.546661,-0.25650024,0.13552856,-0.31367493,17.503357,8.612061,-51.53656,7.61974176,-0.358108518,17.5531004,8.8510133
4.70586E+12,0.41841125,3.5552979,9.04834,-0.27400208,0.12857056,-0.27973938,17.503357,8.612061,-51.53656,8.0684631,-0.33688049,17.4786376,8.6880495
4.70586E+12,0.704895,3.6335602,9.279327,-0.26060486,0.11109924,-0.24659729,17.503357,8.612061,-51.53656,8.4825713,-0.31049194,17.4868774,8.66272
4.70587E+12,0.9036865,3.7467499,9.309326,-0.22076416,0.09275818,-0.22465515,17.503357,8.612061,-51.53656,8.841223,-0.28206787,17.4951172,8.6373905
4.70587E+12,0.9711609,3.8964233,9.138184,-0.16279602,0.07762146,-0.21600342,17.544556,8.132935,-51.150513,9.0643676,-0.256134034,17.5115968,8.5162358
4.70588E+12,1.1462402,4.002899,8.845917,-0.101882935,0.06315613,-0.21833801,17.544556,8.132935,-51.150513,9.1242188,-0.23706665,17.5198366,8.4204106
4.70588E+12,1.3724365,4.039154,8.735764,-0.04006958,0.04171753,-0.22817993,17.544556,8.132935,-51.150513,9.0617036,-0.22675476,17.5280764,8.3245854
4.70589E+12,1.4666595,3.9923553,8.770645,0.003097534,0.018295288,-0.2434082,17.544556,8.132935,-51.150513,8.9599672,-0.226116942,17.5363162,8.2287602
4.70589E+12,1.5136261,3.9378967,8.815704,0.032089233,0.001968384,-0.2692566,17.289734,7.8796387,-50.405884,8.8612428,-0.235037232,17.4935916,8.08227574
4.7059E+12,1.3787537,3.84935,8.917664,0.047805786,-0.002563477,-0.29994202,17.289734,7.8796387,-50.405884,8.8171388,-0.251824952,17.4426272,8.03161648
4.7059E+12,1.2299957,3.5648804,9.124527,0.055007935,0.003463745,-0.33459473,17.289734,7.8796387,-50.405884,8.8728608,-0.275076296,17.3916628,7.98095722
4.70591E+12,1.0771484,3.3185577,9.257065,0.05647278,0.022842407,-0.36712646,17.289734,7.8796387,-50.405884,8.977121,-0.302865602,17.3406984,7.93029796
4.70591E+12,0.8597412,3.190155,9.278412,0.05531311,0.06309509,-0.39074707,16.972351,8.407593,-50.405884,9.0786744,-0.332333376,17.2262574,7.98522956
4.70592E+12,0.62101746,3.1886444,9.248413,0.05455017,0.106933594,-0.39814758,16.972351,8.407593,-50.405884,9.1652162,-0.358111572,17.1627808,8.09082042
4.70592E+12,0.349411,3.2350006,9.195557,0.052856445,0.15093994,-0.39401245,16.972351,8.407593,-50.405884,9.2207948,-0.376925658,17.0993042,8.19641128
4.70593E+12,0.001800537,3.2235107,9.172058,0.04701233,0.1907196,-0.38233948,16.972351,8.407593,-50.405884,9.230301,-0.386474608,17.0358276,8.30200214
4.70593E+12,-0.60069275,3.1297913,9.025894,0.040985107,0.22084045,-0.36810303,16.148376,9.484863,-51.164246,9.1840668,-0.386669922,16.807556,8.623047
4.70594E+12,-0.8307648,3.148529,9.0807495,0.03387451,0.24246216,-0.34677124,16.148376,9.484863,-51.164246,9.1445343,-0.377874756,16.642761,8.838501
4.70594E+12,-0.5561676,3.2842255,9.496689,0.019378662,0.25222778,-0.30775452,16.148376,9.484863,-51.164246,9.1941895,-0.359796144,16.477966,9.053955
4.70595E+12,-0.20236206,3.494522,9.93251,-9.92E-04,0.240448,-0.25793457,16.148376,9.484863,-51.164246,9.3415801,-0.332580568,16.313171,9.269409
4.70596E+12,-0.011886597,3.6431274,10.134689,-0.020553589,0.21388245,-0.21081543,15.916443,9.25293,-52.75116,9.5341063,-0.298275758,16.1019894,9.4384764
4.70596E+12,0.07417297,3.6459808,10.177948,-0.031295776,0.18704224,-0.17852783,15.916443,9.25293,-52.75116,9.7645171,-0.260360718,16.0556028,9.3920898
4.70597E+12,0.13619995,3.5592957,10.264923,-0.035095215,0.15736389,-0.16226196,15.916443,9.25293,-52.75116,10.0013518,-0.223458862,16.0092162,9.3457032
4.70597E+12,0.12931824,3.4902496,10.389725,-0.035232544,0.11331177,-0.15808105,15.916443,9.25293,-52.75116,10.179959,-0.193524168,15.9628296,9.2993166
4.70598E+12,0.11526489,3.4739532,10.61763,-0.030090332,0.047470093,-0.16035461,16.171265,9.124756,-52.25067,10.316983,-0.174008176,15.9674074,9.2272952
4.70598E+12,0.1298523,3.407318,10.994476,-0.022460938,-0.03630066,-0.16014099,16.171265,9.124756,-52.25067,10.4889404,-0.163873288,16.0183718,9.2016604
4.70599E+12,0.1387024,3.2780457,11.513824,-0.012954712,-0.1328888,-0.15548706,16.171265,9.124756,-52.25067,10.7561156,-0.159265134,16.0693362,9.1760256
4.70599E+12,0.13230896,3.1311035,12.069855,-1.07E-04,-0.22819519,-0.14828491,16.171265,9.124756,-52.25067,11.117102,-0.156469724,16.1203006,9.1503908
4.706E+12,0.12779236,2.975006,12.527466,0.016571045,-0.2992096,-0.13973999,16.668701,8.842468,-51.0849,11.5446502,-0.152801512,16.2707522,9.0682984
4.706E+12,0.17788696,2.8632507,12.917282,0.036499023,-0.34057617,-0.12646484,16.668701,8.842468,-51.0849,12.0045806,-0.146023558,16.3702394,9.0118408
4.70601E+12,0.26649475,2.8117065,13.233826,0.05239868,-0.3461151,-0.10722351,16.668701,8.842468,-51.0849,12.4524506,-0.135440062,16.4697266,8.9553832
4.70601E+12,0.31729126,2.8841553,13.469955,0.063308716,-0.32408142,-0.08572388,16.668701,8.842468,-51.0849,12.8436768,-0.121487426,16.5692138,8.8989256
4.70602E+12,0.4728241,3.0854797,13.742523,0.07463074,-0.28556824,-0.06468201,16.775513,8.7387085,-50.572205,13.1782104,-0.104766846,16.6900634,8.8217161
4.70602E+12,0.63804626,3.2700043,13.993027,0.08743286,-0.23277283,-0.050964355,16.775513,8.7387085,-50.572205,13.4713226,-0.087011719,16.7114258,8.8009642
4.70603E+12,0.505188,3.3533478,14.036316,0.10508728,-0.17150879,-0.04812622,16.775513,8.7387085,-50.572205,13.6951294,-0.071343995,16.7327882,8.7802123
4.70603E+12,0.31498718,3.226654,13.804779,0.129776,-0.08528137,-0.057022095,16.775513,8.7387085,-50.572205,13.80932,-0.061303712,16.7541506,8.7594604
4.70604E+12,0.24006653,2.961441,13.371384,0.15188599,0.022628784,-0.06752014,16.85028,8.963013,-50.645447,13.7896058,-0.057662964,16.7904664,8.7835694
4.70604E+12,0.02722168,2.671051,12.856995,0.15864563,0.15078735,-0.07122803,16.85028,8.963013,-50.645447,13.6125002,-0.058972168,16.8054198,8.8284303
4.70605E+12,-0.2850647,2.3148956,12.529907,0.14128113,0.28883362,-0.06982422,16.85028,8.963013,-50.645447,13.3198762,-0.062744141,16.8203732,8.8732912
4.70605E+12,-0.7176361,2.117096,12.213409,0.09635925,0.42697144,-0.06764221,16.85028,8.963013,-50.645447,12.9552948,-0.066647339,16.8353266,8.9181521
4.70606E+12,-1.1852112,1.9928131,11.98407,0.036239624,0.5533447,-0.061203003,17.100525,9.872437,-50.58899,12.591153,-0.067483521,16.900329,9.1448978
4.70606E+12,-1.6383972,1.9115448,11.954056,-0.044525146,0.6872101,-0.045455933,17.100525,9.872437,-50.58899,12.3076874,-0.063070679,16.950378,9.3267826
4.70607E+12,-1.9332275,2.0013733,12.141052,-0.12789917,0.7921295,-0.02394104,17.100525,9.872437,-50.58899,12.1644988,-0.053613281,17.000427,9.5086674
4.70607E+12,-2.1419678,2.1154022,12.431671,-0.20147705,0.865921,0.005950928,17.100525,9.872437,-50.58899,12.1448516,-0.038458252,17.050476,9.6905522
4.70608E+12,-2.321991,2.2743225,12.57132,-0.2539673,0.9079437,0.034500122,17.289734,10.627747,-50.405884,12.2164338,-0.018029785,17.1383668,10.023499
4.70608E+12,-2.5272522,2.2663116,12.498093,-0.28175354,0.92697144,0.06173706,17.289734,10.627747,-50.405884,12.3192384,0.006558227,17.1762086,10.174561
4.70609E+12,-2.6927643,2.0661469,12.426865,-0.2879486,0.9220581,0.08605957,17.289734,10.627747,-50.405884,12.4138002,0.032861328,17.2140504,10.325623
4.70609E+12,-2.7767944,1.9445038,12.489975,-0.27589417,0.882843,0.119903564,17.289734,10.105896,-50.743103,12.4835848,0.061630249,17.2518922,10.3723148
4.7061E+12,-2.8298645,1.8401794,12.56221,-0.2566986,0.8101349,0.15859985,17.289734,10.105896,-50.743103,12.5096926,0.092160033,17.289734,10.4190066
4.7061E+12,-2.7524872,1.8757629,12.817184,-0.22763062,0.7119751,0.2038269,17.289734,10.105896,-50.743103,12.5588654,0.126025389,17.289734,10.3146364
4.70611E+12,-2.5441284,1.8931732,13.19902,-0.18798828,0.597641,0.2566681,17.289734,10.105896,-50.743103,12.6990508,0.165011597,17.289734,10.2102662
4.70611E+12,-2.2698822,1.848587,13.3233185,-0.1353302,0.4811554,0.31181335,18.530273,9.063721,-50.21057,12.8783415,0.210162353,17.5378418,9.897461
4.70612E+12,-2.0371704,1.8889923,13.12796,-0.07040405,0.37983704,0.3646698,18.530273,9.063721,-50.21057,13.0059385,0.2591156,17.7859496,9.689026
4.70612E+12,-1.7444,1.9833069,12.756638,0.008865356,0.28204346,0.41870117,18.530273,9.063721,-50.21057,13.0448241,0.311135864,18.0340574,9.480591
4.70613E+12,-1.3209229,2.0254364,12.45546,0.07946777,0.2056427,0.4644165,18.530273,9.063721,-50.21057,12.9724793,0.363253784,18.2821652,9.272156
4.70613E+12,-0.9002991,2.1871796,12.221756,0.1337738,0.13664246,0.50749207,19.694519,8.566284,-49.40033,12.7770265,0.413418578,18.7631222,8.9642336
4.70614E+12,-0.54875183,2.4218292,12.078766,0.16592407,0.07783508,0.5416565,19.694519,8.566284,-49.40033,12.528116,0.459387208,18.9959714,8.8647462
4.70614E+12,-0.22789001,2.6308746,11.875778,0.17662048,0.036392212,0.5616455,19.694519,8.566284,-49.40033,12.2776796,0.498782348,19.2288206,8.7652588
4.70615E+12,0.025466919,2.7588654,11.603409,0.16889954,0.014602661,0.5663452,19.694519,8.566284,-49.40033,12.0470338,0.528311154,19.4616698,8.6657714
4.70615E+12,0.1929779,2.838852,11.337158,0.13757324,0.011795044,0.5520477,19.79065,9.054565,-49.876404,11.8233734,0.545837394,19.7137452,8.6639402
4.70616E+12,0.31414795,2.8429108,11.242004,0.091430664,0.02178955,0.5225067,19.79065,9.054565,-49.876404,11.627423,0.54884032,19.7329714,8.7615964
4.70616E+12,0.3197174,2.7690582,11.165344,0.031951904,0.036376953,0.48382568,19.79065,9.054565,-49.876404,11.4447386,0.537274156,19.7521976,8.8592526
4.70617E+12,0.2102356,2.649994,11.2057495,-0.03250122,0.048706055,0.43959045,19.79065,9.054565,-49.876404,11.3107329,0.512863146,19.7714238,8.9569088
4.70617E+12,0.06286621,2.4519806,11.3155365,-0.09310913,0.058166504,0.3922882,19.865417,9.225464,-50.62561,11.2531584,0.478051746,19.8056034,9.0887448
4.70618E+12,-0.21183777,2.179657,11.537857,-0.14506531,0.06373596,0.3449402,19.865417,9.225464,-50.62561,11.2932982,0.436630246,19.8205568,9.1229246
4.70618E+12,-0.52368164,1.9269409,11.723221,-0.18043518,0.06512451,0.29734802,19.865417,9.225464,-50.62561,11.3895416,0.39159851,19.8355102,9.1571044
4.70619E+12,-0.8301239,1.662384,11.680237,-0.19030762,0.063705444,0.26411438,19.865417,9.225464,-50.62561,11.4925202,0.34765625,19.8504636,9.1912842
4.70619E+12,-1.1725006,1.3956909,11.48465,-0.17489624,0.057907104,0.24694824,19.865417,9.082031,-50.907898,11.5483003,0.309127808,19.865417,9.1967774
4.7062E+12,-1.4066162,1.2044373,11.30278,-0.13761902,0.047073364,0.24502563,19.865417,9.082031,-50.907898,11.545749,0.279675294,19.865417,9.1680908
4.7062E+12,-1.4745178,1.1087341,11.185501,-0.09013367,0.032348633,0.25953674,19.865417,9.082031,-50.907898,11.4752778,0.262594602,19.865417,9.1394042
4.70621E+12,-1.4617157,1.0319214,11.227005,-0.03767395,0.01109314,0.29058838,19.865417,9.082031,-50.907898,11.3760346,0.261242674,19.865417,9.1107176
4.70621E+12,-1.4484863,1.0240326,11.1489105,0.023117065,-0.014312744,0.33143616,19.429016,8.427429,-49.420166,11.2697693,0.27470703,19.7781368,8.9511106
4.70622E+12,-1.4050293,1.0986481,10.728836,0.09303284,-0.03451538,0.37153625,19.429016,8.427429,-49.420166,11.1186065,0.299624632,19.6908566,8.8201902
4.70622E+12,-1.1545715,1.2202759,10.137344,0.17224121,-0.049423218,0.41212463,19.429016,8.427429,-49.420166,10.8855193,0.333044432,19.6035764,8.6892698
4.70623E+12,-0.9008179,1.4091034,9.504013,0.25135803,-0.063827515,0.45089722,19.429016,8.427429,-49.420166,10.5492217,0.371316528,19.5162962,8.5583494
4.70623E+12,-0.69918823,1.6729584,8.821152,0.31651306,-0.08744812,0.4806366,20.173645,8.825684,-48.884583,10.0680511,0.409326172,19.5779418,8.50708
4.70624E+12,-0.34848022,1.8995056,8.128204,0.36746216,-0.11920166,0.4994812,20.173645,8.825684,-48.884583,9.4639098,0.44293518,19.7268676,8.586731
4.70624E+12,-0.07557678,2.0817413,7.5234222,0.3927002,-0.15156555,0.5055542,20.173645,8.825684,-48.884583,8.82282704,0.46973877,19.8757934,8.666382
4.70625E+12,0.28172302,2.3370667,7.0892944,0.39059448,-0.1862793,0.4948883,20.173645,8.825684,-48.884583,8.21321712,0.486291504,20.0247192,8.746033
4.70625E+12,0.639801,2.5385742,6.678299,0.3605652,-0.21990967,0.46687317,20.724487,9.25293,-49.064636,7.64807432,0.489486694,20.2838134,8.9111332
4.70626E+12,0.82914734,2.6004944,6.3964233,0.2998352,-0.24386597,0.4188385,20.724487,9.25293,-49.064636,7.16312858,0.477127074,20.3939818,8.9965824
4.70626E+12,0.74720764,2.6029816,6.270447,0.21636963,-0.24583435,0.3582611,20.724487,9.25293,-49.064636,6.79157718,0.448883054,20.5041502,9.0820316
4.70627E+12,0.6226654,2.5180054,6.4059143,0.10038757,-0.22468567,0.27641296,20.724487,9.25293,-49.064636,6.5680756,0.403054806,20.6143186,9.1674808
4.70627E+12,0.49461365,2.3992462,6.6858063,-0.0287323,-0.1885376,0.19055176,19.644165,8.174133,-50.115967,6.48737798,0.342187498,20.5084226,9.0371706
4.70628E+12,0.36904907,2.1889038,7.033127,-0.15705872,-0.15026855,0.10974121,19.644165,8.174133,-50.115967,6.55834358,0.270761106,20.2923582,8.8214112
4.70628E+12,0.17175293,1.9023132,7.2991486,-0.2722168,-0.111953735,0.032592773,19.644165,8.174133,-50.115967,6.73888864,0.193511961,20.0762938,8.6056518
4.70629E+12,-0.018035889,1.7184448,7.4240417,-0.36740112,-0.07572937,-0.03514099,19.644165,8.174133,-50.115967,6.96960758,0.114831543,19.8602294,8.3898924
4.70629E+12,-0.2533722,1.4839935,7.7816772,-0.433609,-0.047409058,-0.08938599,19.541931,7.58667,-50.216675,7.24476016,0.041671753,19.6237182,8.0566404
4.7063E+12,-0.48927307,1.3153381,8.027206,-0.48846436,-0.022140503,-0.13760376,19.541931,7.58667,-50.216675,7.5130401,-0.023959351,19.6032714,7.9391478
4.7063E+12,-0.6843109,1.0251007,8.561157,-0.51452637,-0.014282227,-0.17131042,19.541931,7.58667,-50.216675,7.8186461,-0.080169677,19.5828246,7.8216552
4.70631E+12,-0.87939453,0.7629547,8.823883,-0.51582336,-0.02116394,-0.19378662,19.541931,7.58667,-50.216675,8.12359298,-0.125445556,19.5623778,7.7041626
4.70631E+12,-1.2121277,0.43397522,8.911926,-0.4861145,-0.036254883,-0.20613098,19.694519,7.536316,-50.07019,8.42116984,-0.159643554,19.5724486,7.5765992
4.70632E+12,-1.6613159,0.1315155,8.781006,-0.4861145,-0.036254883,-0.20613098,19.694519,7.536316,-50.07019,8.6210356,-0.182992552,19.6029662,7.5665284
4.70632E+12,-1.8715973,-0.011199951,8.586029,-0.35542297,-0.061553955,-0.19403076,19.694519,7.536316,-50.07019,8.7328002,-0.194277952,19.6334838,7.5564576
4.70633E+12,-2.0245667,0.07397461,8.350952,-0.2752533,-0.06813049,-0.14448547,19.432068,8.584595,-50.837708,8.6907592,-0.188912962,19.6115112,7.7560426
4.70633E+12,-2.0142517,0.33636475,7.9937744,-0.20462036,-0.085250854,-0.08248901,19.432068,8.584595,-50.837708,8.52473748,-0.16665344,19.5895386,7.9556276
4.70634E+12,-1.7023773,0.5211334,7.773651,-0.1408844,-0.1113739,-0.011749268,19.432068,8.584595,-50.837708,8.29708248,-0.127777098,19.5370484,8.1652834
4.70634E+12,-1.3504639,0.63752747,7.5855255,-0.08380127,-0.138031,0.058029175,19.432068,8.584595,-50.837708,8.05798638,-0.074945067,19.4845582,8.3749392
4.70635E+12,-0.9708252,0.8221741,7.6138916,-0.043762207,-0.16699219,0.115112305,19.615173,8.114624,-50.55847,7.8635589,-0.013116454,19.468689,8.4906008
4.70635E+12,-0.6352234,0.99967957,7.5408325,-0.013244629,-0.19177246,0.15890503,19.615173,8.114624,-50.55847,7.701535,0.047561646,19.50531,8.3966066
4.70636E+12,-0.19882202,1.2527924,7.418625,0.019210815,-0.20803833,0.19189453,19.615173,8.114624,-50.55847,7.58650512,0.102438354,19.541931,8.3026124
4.70636E+12,0.17164612,1.3480835,7.4111786,0.05293274,-0.21087646,0.2106018,19.615173,8.114624,-50.55847,7.51401064,0.146908568,19.578552,8.2086182
4.70637E+12,0.36865234,1.2216644,7.3559265,0.08331299,-0.20664978,0.21331787,19.694519,7.8796387,-50.405884,7.46809084,0.177966307,19.6310422,8.06762694
4.70637E+12,0.3222046,1.1860657,7.1704407,0.11798096,-0.19662476,0.20106506,19.694519,7.8796387,-50.405884,7.37940066,0.195156858,19.6469114,8.02062988
4.70638E+12,0.26945496,1.3320313,6.81514,0.15382385,-0.17738342,0.18475342,19.694519,7.8796387,-50.405884,7.23426216,0.200326536,19.6627806,7.97363282
4.70638E+12,0.24154663,1.4862518,6.555435,0.18623352,-0.15089417,0.16967773,19.694519,7.8796387,-50.405884,7.06162416,0.195883176,19.6786498,7.92663576
4.70639E+12,0.13108826,1.509613,6.4260254,0.21333313,-0.11885071,0.15931702,18.128967,8.874512,-49.71161,6.86459352,0.18562622,19.3814086,8.07861336
4.70639E+12,-0.111694336,1.4503021,6.3379974,0.22756958,-0.093673706,0.14912415,18.128967,8.874512,-49.71161,6.6610077,0.172787476,19.0682982,8.27758802
4.7064E+12,-0.33010864,1.3512878,6.2562714,0.23550415,-0.07258606,0.14012146,18.128967,8.874512,-49.71161,6.47817384,0.160598756,18.7551878,8.47656268
4.7064E+12,-0.49137878,1.282608,6.188431,0.23947144,-0.051940918,0.13948059,18.128967,8.874512,-49.71161,6.35283204,0.15154419,18.4420774,8.67553734
4.70641E+12,-0.62590027,1.2612152,6.166275,0.24107361,-0.03390503,0.1516571,19.667053,9.223938,-50.26703,6.27500004,0.147940064,18.4365842,8.9443972
4.70641E+12,-0.7856903,1.2962494,6.1743927,0.23919678,-0.015686035,0.17599487,19.667053,9.223938,-50.26703,6.2246735,0.151275634,18.7442014,9.0142824
4.70642E+12,-0.83729553,1.3740082,6.1044006,0.23625183,0.006515503,0.2118988,19.667053,9.223938,-50.26703,6.17795414,0.163830564,19.0518186,9.0841676
4.70642E+12,-0.71113586,1.5167542,5.941269,0.2345581,0.029647827,0.2520752,19.667053,9.223938,-50.26703,6.11495366,0.186221312,19.3594358,9.1540528
4.70643E+12,-0.41767883,1.7666168,5.837631,0.23295593,0.04675293,0.29566956,20.037842,9.25293,-50.405884,6.04479366,0.217459106,19.7412108,9.2297364
4.70643E+12,-0.048339844,2.0831757,5.795349,0.22698975,0.05769348,0.33554077,20.037842,9.25293,-50.405884,5.97060846,0.25423584,19.8153686,9.2355348
4.70644E+12,0.31282043,2.4213257,5.7086487,0.21226501,0.06611633,0.36082458,20.037842,9.25293,-50.405884,5.87745966,0.291201782,19.8895264,9.2413332
4.70644E+12,0.6697235,2.7170258,5.600708,0.1876831,0.07594299,0.36787415,20.037842,9.25293,-50.405884,5.77672114,0.322396852,19.9636842,9.2471316
4.70645E+12,0.966156,2.9407349,5.55365,0.15220642,0.0884552,0.35350037,19.577026,8.180237,-51.75171,5.69919734,0.342681886,19.9456788,9.0383914
4.70645E+12,1.1728668,3.1348877,5.563019,0.10913086,0.09965515,0.32173157,19.577026,8.180237,-51.75171,5.64427494,0.347894288,19.8535156,8.8238528
4.70646E+12,1.1804504,3.306549,5.811676,0.06590271,0.099624634,0.2762909,19.577026,8.180237,-51.75171,5.64754034,0.336044314,19.7613524,8.6093142
4.70646E+12,0.97102356,3.3509216,6.2135468,0.03125,0.075424194,0.21594238,19.577026,8.180237,-51.75171,5.74851996,0.307067874,19.6691892,8.3947756
4.70647E+12,0.60443115,3.2281647,6.600891,0.014465332,0.02633667,0.14901733,19.830322,8.360291,-51.01013,5.94855656,0.26329651,19.6276852,8.2162478
4.70647E+12,0.05810547,2.977478,7.1090393,0.020523071,-0.04777527,0.07914734,19.830322,8.360291,-51.01013,6.25963442,0.208425904,19.6783444,8.2522586
4.70648E+12,-0.4119568,2.7573242,7.615448,0.050445557,-0.13928223,0.021316528,19.830322,8.360291,-51.01013,6.67012022,0.148342896,19.7290036,8.2882694
4.70648E+12,-0.7461853,2.5529938,8.034531,0.10057068,-0.23677063,-0.011169434,19.830322,8.360291,-51.01013,7.11469122,0.090850829,19.7796628,8.3242802
4.70649E+12,-0.93473816,2.4134216,8.327072,0.16801453,-0.33309937,-0.011871338,19.865417,8.395386,-50.907898,7.53739626,0.045288085,19.837341,8.36731
4.70649E+12,-0.97566223,2.3066254,8.558426,0.24761963,-0.41601563,0.012542725,19.865417,8.395386,-50.907898,7.92890326,0.017993164,19.84436,8.374329
4.7065E+12,-0.9154358,2.3765259,8.692963,0.32025146,-0.4753418,0.0521698,19.865417,8.395386,-50.907898,8.245688,0.012597656,19.851379,8.381348
4.7065E+12,-0.7687073,2.5303802,8.63382,0.3926239,-0.51675415,0.10498047,19.865417,8.395386,-50.907898,8.4493624,0.029330445,19.858398,8.388367
4.70651E+12,-0.5600281,2.6859436,8.547363,0.453125,-0.5296478,0.15625,20.523071,7.736206,-51.228333,8.5519288,0.062814331,19.9969478,8.26355
4.70651E+12,-0.27812195,2.8940582,8.495422,0.49441528,-0.51724243,0.19992065,20.523071,7.736206,-51.228333,8.5855988,0.105172729,20.1284786,8.131714
4.70652E+12,0.055358887,3.1754913,8.590561,0.5158539,-0.48399353,0.236969,20.523071,7.736206,-51.228333,8.5920258,0.150057984,20.2600094,7.999878
4.70652E+12,0.3735962,3.4074707,8.603714,0.5161743,-0.43440247,0.26057434,20.523071,7.736206,-51.228333,8.574176,0.191738892,20.3915402,7.868042
4.70653E+12,0.62586975,3.52388,8.661819,0.49951172,-0.37454224,0.26361084,20.387268,7.2113037,-50.75836,8.5797758,0.223464966,20.4959104,7.63122554
4.70653E+12,0.7481842,3.5641174,8.901993,0.4688263,-0.2975464,0.24682617,20.387268,7.2113037,-50.75836,8.6507018,0.2415802,20.4687498,7.52624508
4.70654E+12,0.63087463,3.6355438,9.343338,0.4267273,-0.21969604,0.21168518,20.387268,7.2113037,-50.75836,8.820285,0.243933106,20.4415892,7.42126462
4.70654E+12,0.44122314,3.4929504,9.69075,0.37800598,-0.13719177,0.16319275,20.387268,7.2113037,-50.75836,9.0403228,0.229177856,20.4144286,7.31628416
4.70655E+12,0.16293335,3.3124237,9.891037,0.3298645,-0.04966736,0.113967896,20.387268,7.2113037,-50.75836,9.2977874,0.199856567,20.387268,7.2113037
4.70655E+12,-0.12149048,3.131836,9.942947,0.3298645,-0.04966736,0.113967896,20.387268,7.2113037,-50.75836,9.554013,0.169927978,20.387268,7.2113037
4.70656E+12,-0.35557556,2.985077,10.058289,0.25509644,0.12927246,0.036010742,20.387268,7.2113037,-50.75836,9.7852722,0.127764893,20.387268,7.2113037
4.70656E+12,-0.56430054,3.022995,10.181274,0.22058105,0.21128845,0.013046265,20.378113,7.1884155,-50.74005,9.9528594,0.08803711,20.385437,7.20672606
4.70657E+12,-0.7455139,3.038269,10.231369,0.19882202,0.26480103,0.002563477,20.378113,7.1884155,-50.74005,10.0609832,0.055911255,20.383606,7.20214842
4.70657E+12,-0.8742523,2.9524078,10.108185,0.18995667,0.2839508,-0.00302124,20.378113,7.1884155,-50.74005,10.1044128,0.032513428,20.381775,7.19757078
4.70658E+12,-0.92633057,2.9483032,9.787079,0.19921875,0.26852417,-6.87E-04,20.378113,7.1884155,-50.74005,10.0732392,0.00958252,20.379944,7.19299314
4.70658E+12,-0.8364563,2.984146,9.380066,0.21844482,0.21986389,0.002700806,18.62793,5.1208496,-50.750732,9.9375946,0.002920532,20.0280764,6.77490232
4.70659E+12,-0.7240448,3.0625305,9.030457,0.2350769,0.14408875,0.006835938,18.62793,5.1208496,-50.750732,9.7074312,0.001678467,19.6780398,6.36138914
4.70659E+12,-0.5264282,3.014801,8.925934,0.24229431,0.024673462,0.010192871,18.62793,5.1208496,-50.750732,9.4463442,0.003204346,19.3280032,5.94787596
4.7066E+12,-0.46618652,2.9697266,9.132645,0.23362732,-0.11871338,0.005874634,18.62793,5.1208496,-50.750732,9.2512362,0.004983521,18.9779666,5.53436278
4.7066E+12,-0.4011383,2.908661,9.549515,0.21546936,-0.28390503,-0.006881714,17.118835,4.6188354,-51.24359,9.2037234,0.003744507,18.326111,5.02044676
4.70661E+12,-0.29493713,2.8925934,10.112228,0.19171143,-0.4590454,-0.021331787,17.118835,4.6188354,-51.24359,9.3501558,-0.001062012,18.024292,4.92004392
4.70661E+12,-0.17253113,2.8886719,10.752701,0.169281,-0.6282501,-0.032226563,17.118835,4.6188354,-51.24359,9.6946046,-0.008874512,17.722473,4.81964108
4.70662E+12,-0.01083374,2.8286133,11.491379,0.14631653,-0.77993774,-0.04093933,17.118835,4.6188354,-51.24359,10.2076936,-0.019100952,17.420654,4.71923824
4.70662E+12,0.12539673,2.741272,12.3107605,0.11416626,-0.90615845,-0.052337646,17.266846,4.6066284,-51.254272,10.8433167,-0.030743408,17.1484372,4.616394
4.70663E+12,0.19848633,2.6630096,13.127731,0.06736755,-0.9706116,-0.065826416,17.266846,4.6066284,-51.254272,11.5589599,-0.042532348,17.1780394,4.6139526
4.70663E+12,0.28471375,2.6387787,13.943512,9.16E-04,-0.9670563,-0.08039856,17.266846,4.6066284,-51.254272,12.3252167,-0.054345703,17.2076416,4.6115112
4.70664E+12,0.39646912,2.5523071,14.75621,-0.08049011,-0.90008545,-0.09609985,17.266846,4.6066284,-51.254272,13.1259185,-0.06712036,17.2372438,4.6090698
4.70664E+12,0.443573,2.4502258,15.388794,-0.15878296,-0.7872772,-0.11323547,19.216919,4.4311523,-51.454163,13.9054015,-0.081579588,17.6568606,4.57153318
4.70665E+12,0.32887268,2.4092255,15.873062,-0.22789001,-0.6377411,-0.13510132,19.216919,4.4311523,-51.454163,14.6178618,-0.098132323,18.0468752,4.53643796
4.70665E+12,0.15594482,2.256424,16.067307,-0.28544617,-0.45629883,-0.16636658,19.216919,4.4311523,-51.454163,15.205777,-0.118240356,18.4368898,4.50134274
4.70666E+12,0.0834198,2.027176,16.03891,-0.32048035,-0.27619934,-0.20129395,19.216919,4.4311523,-51.454163,15.6248566,-0.142419434,18.8269044,4.46624752
4.70667E+12,-0.032211304,1.859848,15.8749695,-0.33587646,-0.10153198,-0.23460388,17.805481,4.2755127,-51.913452,15.8486085,-0.17012024,18.9346314,4.40002438
4.70667E+12,-0.20707703,1.7654724,15.463974,-0.33903503,0.05583191,-0.26568604,17.805481,4.2755127,-51.913452,15.8636445,-0.200610354,18.6523438,4.36889646
4.70668E+12,-0.33895874,1.7103577,14.918549,-0.3368988,0.1874237,-0.2940216,17.805481,4.2755127,-51.913452,15.6727419,-0.23239441,18.3700562,4.33776854
4.70668E+12,-0.41734314,1.6460571,14.360168,-0.33361816,0.29611206,-0.3202057,17.805481,4.2755127,-51.913452,15.3313141,-0.263162234,18.0877686,4.30664062
4.70669E+12,-0.44218445,1.5654144,13.810333,-0.32833862,0.36647034,-0.34124756,17.713928,4.3655396,-51.82495,14.8855987,-0.291152956,17.7871704,4.29351808
4.70669E+12,-0.4766388,1.5030975,13.405518,-0.32244873,0.39379883,-0.35609436,17.713928,4.3655396,-51.82495,14.3917084,-0.315451052,17.7688598,4.31152346
4.7067E+12,-0.5525818,1.3736877,13.140671,-0.31698608,0.38415527,-0.36987305,17.713928,4.3655396,-51.82495,13.9270478,-0.336288454,17.7505492,4.32952884
4.7067E+12,-0.76600647,1.1801453,12.872025,-0.30873108,0.34448242,-0.3812561,17.713928,4.3655396,-51.82495,13.517743,-0.353735354,17.7322386,4.34753422
4.70671E+12,-1.0380096,1.0194855,12.443939,-0.29464722,0.29354858,-0.3832245,16.989136,5.142212,-51.419067,13.1344972,-0.366339114,17.5689696,4.52087408
4.70671E+12,-1.2657928,0.95458984,11.996216,-0.28108215,0.24081421,-0.37374878,16.989136,5.142212,-51.419067,12.7716738,-0.372839358,17.4240112,4.67620856
4.70672E+12,-1.3375244,0.99079895,11.560699,-0.27841187,0.19447327,-0.35110474,16.989136,5.142212,-51.419067,12.40271,-0.371841434,17.2790528,4.83154304
4.70672E+12,-1.2330475,1.0757904,11.323441,-0.2906494,0.14996338,-0.31611633,16.989136,5.142212,-51.419067,12.039264,-0.36109009,17.1340944,4.98687752
4.70673E+12,-0.98924255,1.19841,11.2374115,-0.31843567,0.10038757,-0.27308655,16.259766,6.163025,-52.416992,11.7123413,-0.33945618,16.843262,5.3463746
4.70673E+12,-0.63186646,1.288269,11.518753,-0.35603333,0.04396057,-0.22741699,16.259766,6.163025,-52.416992,11.5273041,-0.308294678,16.697388,5.5505372
4.70674E+12,-0.3433075,1.4095306,11.837875,-0.3907013,-0.017852783,-0.18980408,16.259766,6.163025,-52.416992,11.4956359,-0.271505738,16.551514,5.7546998
4.70674E+12,0.02229309,1.4893494,12.356857,-0.41764832,-0.09416199,-0.15623474,16.259766,6.163025,-52.416992,11.6548675,-0.232531738,16.40564,5.9588624
4.70675E+12,0.5282898,1.6028748,12.892563,-0.42092896,-0.17427063,-0.13066101,16.360474,6.466675,-52.18506,11.9686919,-0.195440674,16.2799076,6.223755
4.70675E+12,0.91874695,1.6504364,13.380035,-0.39938354,-0.24816895,-0.113220215,16.360474,6.466675,-52.18506,12.3972166,-0.163467407,16.3000492,6.284485
4.70676E+12,1.1276398,1.7612915,13.840469,-0.35487366,-0.3093567,-0.10441589,16.360474,6.466675,-52.18506,12.8615598,-0.138867187,16.3201908,6.345215
4.70676E+12,1.1614532,1.7248993,13.97847,-0.28837585,-0.3514862,-0.10366821,16.360474,6.466675,-52.18506,13.2896788,-0.121640013,16.3403324,6.405945
4.70677E+12,1.084198,1.7000122,14.036621,-0.2083435,-0.37330627,-0.11112976,16.775513,7.4142456,-51.24359,13.6256316,-0.112619017,16.4434818,6.65618912
4.70677E+12,1.1602783,1.6431732,13.793137,-0.10220337,-0.3801117,-0.11732483,16.775513,7.4142456,-51.24359,13.8057464,-0.109951781,16.5264896,6.84570324
4.70678E+12,1.2931824,1.7159119,13.459656,0.003494263,-0.36141968,-0.11230469,16.775513,7.4142456,-51.24359,13.8216706,-0.109768676,16.6094974,7.03521736
4.70678E+12,1.3718567,1.7167816,13.006668,0.105270386,-0.31796265,-0.10467529,16.775513,6.335449,-51.24359,13.6549104,-0.109820556,16.6925052,7.00897216
4.70679E+12,1.4175415,1.6000366,12.519333,0.19326782,-0.25646973,-0.09500122,16.775513,6.335449,-51.24359,13.363083,-0.108087158,16.775513,6.98272696
4.70679E+12,1.3904572,1.6158295,11.921158,0.19326782,-0.25646973,-0.09500122,16.775513,6.335449,-51.24359,12.9399904,-0.10486145,16.775513,6.76696764
4.7068E+12,1.3852692,1.6635742,10.891907,0.33081055,-0.0945282,-0.07595825,16.775513,6.335449,-51.24359,12.3597444,-0.096588134,16.775513,6.55120832
4.7068E+12,1.3550873,1.6897278,10.016006,0.39544678,-3.97E-04,-0.06402588,17.175293,6.5567017,-51.54724,11.6710144,-0.086932372,16.855469,6.37969954
4.70681E+12,1.32547,1.7052002,9.023758,0.4431305,0.07583618,-0.051071167,17.175293,6.5567017,-51.54724,10.8744324,-0.076211547,16.935425,6.42395008
4.70681E+12,1.3672638,1.7016754,8.10289,0.47784424,0.13301086,-0.03918457,17.175293,6.5567017,-51.54724,9.9911438,-0.065048217,17.015381,6.46820062
4.70682E+12,1.4721527,1.83255,7.3118896,0.49369812,0.17448425,-0.028305054,17.175293,6.5567017,-51.54724,9.06929012,-0.051708984,17.095337,6.51245116
4.70682E+12,1.5987244,1.9880371,6.6200714,0.49183655,0.19487,-0.01789856,17.89093,7.2402954,-52.36969,8.214923,-0.040097046,17.3184204,6.69342044
4.70683E+12,1.6936646,2.1380157,6.003372,0.47306824,0.19598389,-0.011169434,17.89093,7.2402954,-52.36969,7.4123962,-0.029525757,17.4615478,6.83013918
4.70683E+12,1.795578,2.2346954,5.486786,0.434906,0.18011475,-0.016784668,17.89093,7.2402954,-52.36969,6.7050018,-0.022668457,17.6046752,6.96685792
4.70684E+12,1.875473,2.3110962,5.0870056,0.38728333,0.15246582,-0.03112793,17.89093,7.2402954,-52.36969,6.10182492,-0.021057129,17.7478026,7.10357666
4.70684E+12,1.9673767,2.3667145,4.861557,0.3231964,0.11782837,-0.051605225,16.775513,7.3654175,-52.249146,5.6117584,-0.025717163,17.6678466,7.26531982
4.70685E+12,1.9632874,2.3945923,4.8074036,0.2475586,0.07647705,-0.08026123,16.775513,7.3654175,-52.249146,5.24922484,-0.038189697,17.4447632,7.29034424
4.70685E+12,1.9850159,2.4140015,4.8598785,0.16659546,0.033187866,-0.114715576,16.775513,7.3654175,-52.249146,5.02052614,-0.058898926,17.2216798,7.31536866
4.70686E+12,1.9884949,2.3933716,5.1677246,0.08439636,-0.012405396,-0.15019226,16.775513,7.3654175,-52.249146,4.95671386,-0.085580444,16.9985964,7.34039308
4.70686E+12,1.8042145,2.2774048,5.554352,-0.001373291,-0.064819336,-0.19184875,16.775513,7.1411133,-51.809692,5.05018314,-0.117724608,16.775513,7.32055666
4.70687E+12,1.6531677,2.117981,5.963394,-0.071884155,-0.11357117,-0.2344513,16.775513,7.1411133,-51.809692,5.27055054,-0.154293823,16.775513,7.27569582
4.70687E+12,1.5973206,2.0707397,6.434784,-0.12684631,-0.15988159,-0.27488708,16.775513,7.1411133,-51.809692,5.59602662,-0.193218993,16.775513,7.23083498
4.70688E+12,1.5391083,2.014511,6.8405914,-0.16629028,-0.20223999,-0.30847168,16.775513,7.1411133,-51.809692,5.9921692,-0.231970214,16.775513,7.18597414
4.70688E+12,1.4450073,1.8874817,7.14386,-0.18644714,-0.23744202,-0.33506775,17.185974,6.854248,-51.42212,6.38739628,-0.268945312,16.8576052,7.08374024
4.70689E+12,1.3250885,1.8021088,7.3684387,-0.1895752,-0.2636261,-0.36001587,17.185974,6.854248,-51.42212,6.75021362,-0.302578736,16.9396974,7.02636718
4.70689E+12,1.2093964,1.76828,7.559067,-0.17658997,-0.28378296,-0.38308716,17.185974,6.854248,-51.42212,7.06934822,-0.332305908,17.0217896,6.96899412
4.7069E+12,1.1595001,1.734436,7.7186584,-0.15159607,-0.30337524,-0.39900208,17.185974,6.854248,-51.42212,7.3261231,-0.357128908,17.1038818,6.91162106
4.7069E+12,1.1540222,1.7110901,7.7982025,-0.11882019,-0.32409668,-0.40933228,17.977905,7.192993,-52.416992,7.51764532,-0.377301028,17.3443602,6.921997
4.70691E+12,1.184845,1.7653656,7.7261505,-0.08216858,-0.33677673,-0.41516113,17.977905,7.192993,-52.416992,7.63410342,-0.393319704,17.5027464,6.989746
4.70691E+12,1.2962036,1.861618,7.5828247,-0.051116943,-0.33410645,-0.41885376,17.977905,7.192993,-52.416992,7.67698062,-0.405087282,17.6611326,7.057495
4.70692E+12,1.3579102,1.9290009,7.5287476,-0.031921387,-0.3113861,-0.42500305,17.977905,7.192993,-52.416992,7.67091674,-0.41347046,17.8195188,7.125244
4.70692E+12,1.295517,1.9375458,7.499298,-0.028579712,-0.26837158,-0.43681335,17.640686,7.797241,-51.693726,7.62704466,-0.421032714,17.9104612,7.3138426
4.70693E+12,1.1429443,1.9224854,7.523163,-0.037231445,-0.21434021,-0.4530182,17.640686,7.797241,-51.693726,7.57203676,-0.429769898,17.8430174,7.4346922
4.70693E+12,1.0151825,1.8774109,7.467087,-0.047851563,-0.15435791,-0.47187805,17.640686,7.797241,-51.693726,7.52022406,-0.441113282,17.7755736,7.5555418
4.70694E+12,0.8851929,1.8326721,7.3162994,-0.052642822,-0.093307495,-0.48719788,17.640686,7.797241,-51.693726,7.466919,-0.454782106,17.7081298,7.6763914
4.70694E+12,0.7338257,1.742569,7.0355377,-0.051956177,-0.037994385,-0.4982605,16.90979,7.9727173,-51.182556,7.36827702,-0.469433596,17.4945068,7.83233626
4.70695E+12,0.59721375,1.7404327,6.7460175,-0.04676819,0.015029907,-0.5042877,16.90979,7.9727173,-51.182556,7.21762092,-0.482928466,17.3483276,7.86743152
4.70695E+12,0.484787,1.7877502,6.4903717,-0.039260864,0.060653687,-0.5036926,16.90979,7.9727173,-51.182556,7.01106266,-0.493063346,17.2021484,7.90252678
4.70696E+12,0.48364258,1.8177338,6.425232,-0.036499023,0.097473145,-0.49827576,16.90979,7.9727173,-51.182556,6.80269166,-0.498342888,17.0559692,7.93762204
4.70696E+12,0.6354675,1.8878632,6.5056458,-0.037078857,0.120651245,-0.4900818,16.603088,6.8496704,-52.0813,6.64056094,-0.498919672,16.8484496,7.74810792
4.70697E+12,0.7787781,1.9330597,6.576935,-0.034744263,0.12579346,-0.4813385,16.603088,6.8496704,-52.0813,6.5488404,-0.495535272,16.7871092,7.52349854
4.70697E+12,0.7405548,1.9440155,6.717453,-0.023498535,0.11701965,-0.4788208,16.603088,6.8496704,-52.0813,6.5431275,-0.490441892,16.7257688,7.29888916
4.70698E+12,0.55851746,1.9195862,6.7612305,0.006439209,0.09025574,-0.4812317,16.603088,6.8496704,-52.0813,6.59729926,-0.485949712,16.6644284,7.07427978
4.70698E+12,0.30485535,1.8629608,6.594757,0.0554657,0.046401978,-0.48735046,15.975952,6.692505,-52.233887,6.63120426,-0.483764652,16.4776608,6.81823732
4.70699E+12,0.13804626,1.8001862,6.5196075,0.11328125,-0.005966187,-0.4900818,15.975952,6.692505,-52.233887,6.6339966,-0.483764652,16.3522336,6.78680424
4.70699E+12,0.07736206,1.7700653,6.3522034,0.16621399,-0.055404663,-0.48353577,15.975952,6.692505,-52.233887,6.58905028,-0.484204106,16.2268064,6.75537116
4.707E+12,2.14E-04,1.6987457,6.3339996,0.20181274,-0.08772278,-0.46392822,15.975952,6.692505,-52.233887,6.5123596,-0.48122559,16.1013792,6.72393808
4.707E+12,-0.01399231,1.8009033,6.335495,0.22109985,-0.10394287,-0.43797302,15.792847,7.2296143,-51.394653,6.4272125,-0.472573854,15.939331,6.79992686
4.70701E+12,0.12782288,1.8465576,6.4230957,0.2368164,-0.11514282,-0.40670776,15.792847,7.2296143,-51.394653,6.39288024,-0.456445314,15.90271,6.90734872
4.70701E+12,0.23570251,1.8816986,6.5742188,0.24674988,-0.12495422,-0.3762207,15.792847,7.2296143,-51.394653,6.4038025,-0.433673094,15.866089,7.01477058
4.70702E+12,0.3607025,1.9685059,6.6056976,0.25442505,-0.13020325,-0.34890747,16.43219,8.052063,-50.238037,6.45450134,-0.406747434,15.9573366,7.28668218
4.70702E+12,0.50187683,2.0872192,6.5849304,0.26190186,-0.12208557,-0.3262024,16.43219,8.052063,-50.238037,6.5046875,-0.37920227,16.0485842,7.55859378
4.70703E+12,0.6881561,2.2045593,6.6933746,0.26489258,-0.10342407,-0.310318,16.43219,8.052063,-50.238037,6.57626342,-0.353671266,16.1764528,7.72308352
4.70703E+12,0.6938629,2.3059845,6.8107452,0.26385498,-0.0821228,-0.30126953,16.43219,8.052063,-50.238037,6.65379332,-0.33258362,16.3043214,7.88757326
4.70704E+12,0.6521454,2.3079987,6.8826294,0.2566986,-0.05491638,-0.30418396,16.16211,7.7819824,-51.197815,6.71547544,-0.318176272,16.378174,7.99804688
4.70704E+12,0.5844116,2.3442383,7.034073,0.24908447,-0.027832031,-0.3117981,16.16211,7.7819824,-51.197815,6.80115052,-0.310754398,16.324158,7.94403076
4.70705E+12,0.5904999,2.3843842,7.2011414,0.24253845,-0.002685547,-0.3188324,16.16211,7.7819824,-51.197815,6.92439272,-0.309280398,16.270142,7.89001464
4.70705E+12,0.5786133,2.3824158,7.476227,0.24360657,0.014755249,-0.32173157,16.16211,7.7819824,-51.197815,7.0809632,-0.311563112,16.216126,7.83599852
4.70706E+12,0.49432373,2.3809967,7.58519,0.25045776,0.025482178,-0.32337952,15.733337,6.9869995,-52.615356,7.23585216,-0.31598511,16.0763554,7.62298582
4.70706E+12,0.3065796,2.3896332,7.6953125,0.26000977,0.03050232,-0.32658386,15.733337,6.9869995,-52.615356,7.39838878,-0.32046509,15.9906008,7.46398924
4.70707E+12,0.22706604,2.4612732,7.674103,0.27833557,0.03463745,-0.3230133,15.733337,6.9869995,-52.615356,7.52639478,-0.32270813,15.9048462,7.30499266
4.70707E+12,0.1391449,2.5321045,7.59346,0.29467773,0.033828735,-0.31347656,15.733337,6.9869995,-52.615356,7.6048585,-0.321636962,15.8190916,7.14599608
4.70708E+12,0.050811768,2.5765991,7.58992,0.31254578,0.02281189,-0.2975769,15.57312,6.5063477,-53.086853,7.6275971,-0.316806028,15.7012936,6.89086914
4.70708E+12,-0.08091736,2.5652466,7.7053223,0.33270264,0.00617981,-0.27957153,15.57312,6.5063477,-53.086853,7.65162356,-0.30804443,15.6692502,6.79473878
4.70709E+12,-0.18916321,2.6141357,7.811447,0.34803772,-0.019897461,-0.26011658,15.57312,6.5063477,-53.086853,7.67485046,-0.294750974,15.6372068,6.69860842
4.70709E+12,-0.18618774,2.682602,7.9030457,0.3625183,-0.05845642,-0.2386322,15.57312,6.5063477,-53.086853,7.720639,-0.277874754,15.6051634,6.60247806
4.7071E+12,-0.24395752,2.7545013,8.161453,0.37934875,-0.110961914,-0.21104431,16.47644,5.8029175,-52.20337,7.8342376,-0.257388304,15.753784,6.36566166
4.7071E+12,-0.29174805,2.791031,8.526291,0.39421082,-0.16520691,-0.1822815,16.47644,5.8029175,-52.20337,8.0215118,-0.234329224,15.934448,6.22497562
4.70711E+12,-0.32798767,2.8098602,9.017899,0.410141,-0.21742249,-0.15235901,16.47644,5.8029175,-52.20337,8.28402714,-0.20888672,16.115112,6.08428958
4.70711E+12,-0.39076233,2.843979,9.476639,0.43051147,-0.2597351,-0.122283936,16.47644,5.8029175,-52.20337,8.61706554,-0.181320191,16.295776,5.94360354
4.70712E+12,-0.40480042,2.9156952,9.774063,0.45542908,-0.29019165,-0.09370422,16.708374,5.9188843,-51.57776,8.991269,-0.152334595,16.5228268,5.82611086
4.70712E+12,-0.26200867,3.0737152,9.87912,0.489151,-0.30949402,-0.06227112,16.708374,5.9188843,-51.57776,9.3348024,-0.122579957,16.5692136,5.84930422
4.70713E+12,0.037582397,3.2961884,9.921387,0.5333252,-0.31726074,-0.026428223,16.708374,5.9188843,-51.57776,9.6138216,-0.091409302,16.6156004,5.87249758
4.70713E+12,0.331604,3.4844818,9.962585,0.5753174,-0.31944275,0.002990723,16.708374,5.9188843,-51.57776,9.8027588,-0.060339355,16.6619872,5.89569094
4.70714E+12,0.48016357,3.5929108,9.828995,0.61172485,-0.31932068,0.020629883,16.43219,6.335449,-51.57776,9.87323,-0.031756591,16.6531372,6.00219724
4.70714E+12,0.5134125,3.6381989,9.502686,0.6431732,-0.32250977,0.023788452,16.43219,6.335449,-51.57776,9.8189546,-0.008258057,16.5979004,6.08551018
4.70715E+12,0.56422424,3.6929016,9.057419,0.666275,-0.33561707,0.017181396,16.43219,6.335449,-51.57776,9.6546144,0.007632446,16.5426636,6.16882312
4.70715E+12,0.70240784,3.8353424,8.608292,0.6702423,-0.3598175,0.006668091,16.43219,6.335449,-51.57776,9.3919954,0.014251709,16.4874268,6.25213606
4.70716E+12,0.87275696,3.9676514,8.3888855,0.63861084,-0.38972473,-0.004577637,15.649414,5.999756,-52.775574,9.0772555,0.012738037,16.2756348,6.2683104
4.70716E+12,0.95700073,4.014511,8.587463,0.570282,-0.4190979,-0.020248413,15.649414,5.999756,-52.775574,8.8289491,0.004562378,16.1190796,6.2011718
4.70717E+12,0.89512634,3.9282074,9.163544,0.47061157,-0.45355225,-0.04307556,15.649414,5.999756,-52.775574,8.7611207,-0.008810425,15.9625244,6.1340332
4.70717E+12,0.73983765,3.7898254,9.950867,0.35525513,-0.49076843,-0.07267761,15.649414,5.999756,-52.775574,8.9398103,-0.026782226,15.8059692,6.0668946
4.70718E+12,0.48831177,3.5949554,10.777008,0.2450409,-0.5188904,-0.09983826,15.229797,5.366516,-52.537537,9.3735535,-0.048083496,15.5654906,5.873108
4.70718E+12,0.19311523,3.3269958,11.667191,0.13772583,-0.53596497,-0.12104797,15.229797,5.366516,-52.537537,10.0292146,-0.071377563,15.4815672,5.74646
4.70719E+12,0.03340149,3.1114502,12.607101,0.04559326,-0.5322113,-0.12689209,15.229797,5.366516,-52.537537,10.8331422,-0.092706298,15.3976438,5.619812
4.70719E+12,-0.032440186,2.882492,13.669403,-0.031402588,-0.5026245,-0.117263794,15.229797,5.366516,-52.537537,11.734314,-0.107543945,15.3137204,5.493164
4.7072E+12,-0.110565186,2.7706757,14.81752,-0.0904541,-0.4487152,-0.09651184,15.229797,5.1330566,-52.0813,12.7076446,-0.112310791,15.229797,5.31982412
4.7072E+12,-0.12414551,2.7041168,15.732666,-0.122283936,-0.3751068,-0.0657959,15.229797,5.1330566,-52.0813,13.6987762,-0.105502319,15.229797,5.27313224
4.70721E+12,-0.12361145,2.6488953,16.415741,-0.122039795,-0.29022217,-0.030700684,15.229797,5.1330566,-52.0813,14.6484862,-0.087432862,15.229797,5.22644036
4.70721E+12,-0.20976257,2.6187592,16.55017,-0.08239746,-0.17831421,0.012115479,15.229797,5.1330566,-52.0813,15.4371,-0.059631348,15.229797,5.17974848
4.70722E+12,-0.22769165,2.583313,16.30864,-0.013534546,-0.060562134,0.054870605,14.370728,4.763794,-52.200317,15.9649474,-0.025204468,15.0579832,5.05920408
4.70722E+12,-0.17765808,2.6725464,15.804855,0.068344116,0.062423706,0.10140991,14.370728,4.763794,-52.200317,16.1624144,0.014379882,14.8861694,4.98535156
4.70723E+12,-0.14888,2.7631378,15.049438,0.15304565,0.1804657,0.15019226,14.370728,4.763794,-52.200317,16.0257688,0.057577514,14.7143556,4.91149904
4.70723E+12,-0.10020447,2.7658844,14.341858,0.22781372,0.28485107,0.19612122,14.370728,4.763794,-52.200317,15.6109922,0.102941895,14.5425418,4.83764652
4.70724E+12,-0.007568359,3.018631,13.437073,0.28001404,0.37139893,0.23136902,14.897156,4.244995,-51.88446,14.9883728,0.146792603,14.4760136,4.6600342
4.70724E+12,0.46746826,3.3320007,12.8582,0.31602478,0.45022583,0.2657013,14.897156,4.244995,-51.88446,14.2982848,0.188958742,14.5812992,4.5562744
4.70725E+12,0.7170105,3.7025452,12.49791,0.31495667,0.50445557,0.29159546,14.897156,4.244995,-51.88446,13.6368958,0.226995852,14.6865848,4.4525146
4.70725E+12,0.7223358,3.8614197,12.086945,0.2984314,0.53157043,0.2950287,15.229797,4.1030884,-51.745605,13.0443972,0.25596314,14.8583986,4.32037348
4.70726E+12,0.6467438,3.8251953,11.568954,0.27902222,0.5213165,0.2725525,15.229797,4.1030884,-51.745605,12.4898164,0.271249396,15.0302124,4.18823236
4.70726E+12,0.50053406,3.7012634,11.03302,0.26182556,0.48353577,0.23753357,15.229797,4.1030884,-51.745605,12.0090058,0.272482306,15.0967406,4.15985104
4.70727E+12,0.23052979,3.7026672,10.613968,0.23266602,0.4352417,0.19969177,15.229797,4.1030884,-51.745605,11.5601594,0.2592804,15.1632688,4.13146972
4.70727E+12,-0.008346558,3.672577,10.4655,0.17614746,0.37121582,0.15701294,15.229797,3.565979,-50.70038,11.1536774,0.232363896,15.229797,3.99566652
4.70728E+12,-0.2160492,3.5884705,10.583328,0.101242065,0.31536865,0.123703,15.229797,3.565979,-50.70038,10.852954,0.198098756,15.229797,3.88824464
4.70728E+12,-0.30101013,3.3471222,10.836258,0.004699707,0.2668152,0.100357056,15.229797,3.565979,-50.70038,10.7064148,0.163659667,15.229797,3.78082276
4.70729E+12,-0.39344788,3.1513214,11.348892,-0.10520935,0.23623657,0.082336426,15.229797,3.565979,-50.70038,10.7695892,0.132620238,15.229797,3.67340088
4.70729E+12,-0.52153015,2.9326782,11.890152,-0.21670532,0.22361755,0.07281494,14.68811,2.8747559,-51.460266,11.024826,0.107244872,15.1214596,3.42773438
4.7073E+12,-0.6769104,2.65419,12.400345,-0.31448364,0.22782898,0.06954956,14.68811,2.8747559,-51.460266,11.411795,0.089752196,15.0131222,3.28948976
4.7073E+12,-0.77915955,2.3930511,12.655624,-0.40092468,0.2437439,0.07229614,14.68811,2.8747559,-51.460266,11.8262542,0.079470824,14.9047848,3.15124514
4.70731E+12,-0.9169159,2.1529388,12.872803,-0.45210266,0.25534058,0.08140564,14.68811,2.8747559,-51.460266,12.2335632,0.075680541,14.7964474,3.01300052
4.70731E+12,-1.0862122,1.8934631,13.029022,-0.47372437,0.25595093,0.09666443,14.543152,2.7297974,-51.745605,12.5695892,0.078546142,14.6591184,2.8457642
4.70732E+12,-1.2723999,1.6395111,13.208176,-0.46780396,0.24110413,0.11949158,14.543152,2.7297974,-51.745605,12.833194,0.08788147,14.6301268,2.8167725
4.70732E+12,-1.3998566,1.3698273,13.549728,-0.43655396,0.20794678,0.14888,14.543152,2.7297974,-51.745605,13.0630706,0.103747558,14.6011352,2.7877808
4.70733E+12,-1.3143616,1.2234344,13.86705,-0.37994385,0.16012573,0.18650818,14.543152,2.7297974,-51.745605,13.3053558,0.126589966,14.5721436,2.7587891
4.70733E+12,-1.0809326,1.22966,13.960129,-0.2895813,0.104156494,0.23721313,15.559387,2.87323,-50.186157,13.522821,0.157751464,14.746399,2.75848392
4.70734E+12,-0.8250427,1.2819672,13.803192,-0.18386841,0.06544495,0.29130554,15.559387,2.87323,-50.186157,13.677655,0.196679686,14.949646,2.78717044
4.70734E+12,-0.66397095,1.3276367,13.351318,-0.06994629,0.05152893,0.33979797,15.559387,2.87323,-50.186157,13.7062834,0.240740964,15.152893,2.81585696
4.70735E+12,-0.56166077,1.4356842,12.688095,0.033416748,0.06808472,0.3764038,15.559387,2.87323,-50.186157,13.5339568,0.286245724,15.35614,2.84454348
4.70735E+12,-0.5050812,1.5122528,12.018768,0.11361694,0.11009216,0.40274048,16.036987,3.4851074,-52.468872,13.1643004,0.329492184,15.654907,2.99560548
4.70736E+12,-0.45684814,1.5269012,11.2625885,0.17034912,0.16766357,0.42211914,16.036987,3.4851074,-52.468872,12.6247923,0.366473386,15.750427,3.11798096
4.70736E+12,-0.3407898,1.6345215,10.496277,0.20265198,0.23449707,0.4363861,16.036987,3.4851074,-52.468872,11.9634093,0.395489498,15.845947,3.24035644
4.70737E+12,-0.30421448,1.7735443,9.87059,0.2104187,0.2993164,0.44781494,16.036987,3.4851074,-52.468872,11.2672637,0.417092892,15.941467,3.36273192
4.70738E+12,-0.31303406,1.851059,9.2938385,0.20529175,0.3497162,0.45281982,16.088867,3.5888672,-52.919006,10.5884124,0.432376096,16.047363,3.50585936
4.70738E+12,-0.29315186,1.9106445,8.729736,0.19458008,0.37843323,0.45098877,16.088867,3.5888672,-52.919006,9.930606,0.442025754,16.057739,3.52661132
4.70739E+12,-0.24967957,1.9299774,8.176147,0.18209839,0.38485718,0.44670105,16.088867,3.5888672,-52.919006,9.3133177,0.446942136,16.068115,3.54736328
4.70739E+12,-0.23225403,1.9732513,7.7490234,0.16513062,0.3716278,0.44303894,16.088867,3.5888672,-52.919006,8.76386698,0.448272704,16.078491,3.56811524
4.7074E+12,-0.19673157,2.0363464,7.2389526,0.14273071,0.34057617,0.43873596,16.088867,3.9001465,-51.08795,8.2375395,0.446456908,16.088867,3.65112306
4.7074E+12,-0.12454224,2.0164032,6.7326508,0.117614746,0.3030243,0.431839,16.088867,3.9001465,-51.08795,7.72530196,0.442260744,16.088867,3.71337892
4.70741E+12,-0.05935669,2.031189,6.4621735,0.08633423,0.26634216,0.42640686,16.088867,3.9001465,-51.08795,7.27178946,0.437344362,16.088867,3.77563478
4.70741E+12,0.047714233,2.142868,6.315735,0.038848877,0.237854,0.4182434,16.088867,3.9001465,-51.08795,6.89970706,0.431652832,16.088867,3.83789064
4.70742E+12,0.23513794,2.276657,6.264328,-0.021347046,0.22125244,0.40675354,17.816162,3.4591675,-51.060486,6.60276798,0.424395752,16.434326,3.8119507
4.70742E+12,0.33961487,2.2296448,6.4178925,-0.09579468,0.21522522,0.38934326,17.816162,3.4591675,-51.060486,6.43855596,0.414517212,16.779785,3.7237549
4.70743E+12,0.30941772,2.085144,6.594681,-0.17214966,0.21466064,0.36386108,17.816162,3.4591675,-51.060486,6.410962,0.400921628,17.125244,3.6355591
4.70743E+12,0.17163086,1.9918518,6.7253265,-0.24333191,0.22314453,0.33059692,17.816162,3.4591675,-51.060486,6.4635926,0.38175964,17.470703,3.5473633
4.70744E+12,0.06314087,1.8500061,6.8611298,-0.3052063,0.24534607,0.2992096,17.977905,3.4164429,-51.075745,6.57267156,0.35795288,17.8485106,3.45062258
4.70744E+12,-0.003570557,1.7113037,7.109329,-0.35908508,0.27766418,0.27308655,17.977905,3.4164429,-51.075745,6.74167176,0.331219482,17.8808592,3.44207766
4.70745E+12,-0.01234436,1.6535034,7.411377,-0.40063477,0.3111725,0.25546265,17.977905,3.4164429,-51.075745,6.94036866,0.30444336,17.9132078,3.43353274
4.70745E+12,-0.054641724,1.6042023,7.5823517,-0.4332428,0.34062195,0.23803711,17.977905,3.4164429,-51.075745,7.1379028,0.279278566,17.9455564,3.42498782
4.70746E+12,-0.019699097,1.5992737,7.616989,-0.44352722,0.35255432,0.22155762,17.138672,3.5842896,-50.58441,7.3162353,0.257470706,17.8100584,3.45001224
4.70746E+12,-0.10417175,1.5430603,7.476959,-0.42845154,0.3446045,0.20515442,17.138672,3.5842896,-50.58441,7.43940114,0.23865967,17.6422118,3.48358158
4.70747E+12,-0.19006348,1.5097809,7.1088257,-0.40296936,0.3277588,0.18478394,17.138672,3.5842896,-50.58441,7.43930048,0.220999148,17.4743652,3.51715092
4.70747E+12,-0.28677368,1.5044403,6.703293,-0.37876892,0.30714417,0.167099,17.138672,3.5842896,-50.58441,7.29768368,0.203326418,17.3065186,3.55072026
4.70748E+12,-0.43006897,1.4109497,6.269562,-0.36331177,0.28097534,0.1538086,17.790222,3.251648,-50.90027,7.03512574,0.186480716,17.268982,3.51776128
4.70748E+12,-0.5737152,1.195816,6.1376495,-0.35569763,0.24298096,0.141922,17.790222,3.251648,-50.90027,6.73925784,0.170553592,17.399292,3.45123296
4.70749E+12,-0.66304016,1.0803528,6.3548737,-0.3624878,0.2002716,0.1355896,17.790222,3.251648,-50.90027,6.51484078,0.156640628,17.529602,3.38470464
4.70749E+12,-0.80259705,1.0057983,6.4392395,-0.37750244,0.1491394,0.13607788,17.790222,3.251648,-50.90027,6.38092354,0.146899416,17.659912,3.31817632
4.7075E+12,-0.7164917,1.0923309,6.421646,-0.3869934,0.10423279,0.14533997,17.790222,3.251648,-50.90027,6.32459414,0.14254761,17.790222,3.251648
4.7075E+12,-0.66796875,1.1616516,6.3776245,-0.391922,0.06945801,0.1617279,17.790222,3.251648,-50.90027,6.34620664,0.14413147,17.790222,3.251648
4.70751E+12,-0.5966797,1.1123657,6.3806763,-0.39167786,0.036605835,0.17770386,17.790222,3.251648,-50.90027,6.394812,0.151287842,17.790222,3.251648
4.70751E+12,-0.5424042,1.0566864,6.508499,-0.38537598,-0.005187988,0.1885376,17.788696,3.2791138,-50.897217,6.42553706,0.161877442,17.7899168,3.25714116
4.70752E+12,-0.5155029,1.0181885,6.547943,-0.37580872,-0.040496826,0.19999695,17.788696,3.2791138,-50.897217,6.44727776,0.174661256,17.7896116,3.26263432
4.70752E+12,-0.55960083,0.9995575,6.374115,-0.36158752,-0.063568115,0.20913696,17.788696,3.2791138,-50.897217,6.43777156,0.187420654,17.7893064,3.26812748
4.70753E+12,-0.5324402,1.1882172,6.1754,-0.34742737,-0.069869995,0.22090149,17.788696,3.2791138,-50.897217,6.39732666,0.199255372,17.7890012,3.27362064
4.70753E+12,-0.45246887,1.244461,5.9793243,-0.33502197,-0.06619263,0.23574829,16.972351,5.1452637,-50.405884,6.31705626,0.210864258,17.625427,3.65234378
4.70754E+12,-0.1867218,1.3270721,5.79364,-0.33117676,-0.057373047,0.24908447,16.972351,5.1452637,-50.405884,6.17408446,0.222973632,17.462158,4.02557376
4.70754E+12,0.12034607,1.4738312,5.6763763,-0.34161377,-0.026977539,0.26124573,16.972351,5.1452637,-50.405884,5.99977112,0.235223388,17.298889,4.39880374
4.70755E+12,0.39772034,1.5594177,5.687256,-0.36216736,0.012252808,0.2646637,16.972351,5.1452637,-50.405884,5.86239932,0.246328736,17.13562,4.77203372
4.70755E+12,0.4814148,1.5388031,5.898758,-0.38375854,0.048217773,0.25726318,17.634583,5.4763794,-50.405884,5.80707092,0.253601074,17.1047974,5.21148684
4.70756E+12,0.2723236,1.5016632,6.076889,-0.4012146,0.07548523,0.24021912,17.634583,5.4763794,-50.405884,5.82658386,0.25449524,17.2372438,5.27770998
4.70756E+12,0.060424805,1.5334473,6.2158813,-0.41151428,0.09786987,0.21820068,17.634583,5.4763794,-50.405884,5.91103212,0.248318482,17.3696902,5.34393312
4.70757E+12,-0.061920166,1.5264435,6.3115845,-0.40768433,0.11276245,0.19941711,17.634583,5.4763794,-50.405884,6.03807376,0.235952758,17.5021366,5.41015626
4.70757E+12,-0.18103027,1.4865265,6.437042,-0.3898468,0.11894226,0.188797,17.619324,5.3756714,-50.47455,6.18803096,0.220779418,17.6315312,5.4562378
4.70758E+12,-0.30162048,1.4165039,6.763504,-0.3661499,0.11462402,0.18777466,17.619324,5.3756714,-50.47455,6.36098016,0.206881714,17.6284794,5.4360962
4.70758E+12,-0.39413452,1.3851929,7.284561,-0.33709717,0.10166931,0.19137573,17.619324,5.3756714,-50.47455,6.60251456,0.197113036,17.6254276,5.4159546
4.70759E+12,-0.43997192,1.3945465,7.702179,-0.29890442,0.0909729,0.19981384,17.619324,5.3756714,-50.47455,6.8997741,0.193435668,17.6223758,5.395813
4.70759E+12,-0.48147583,1.4513245,7.7938538,-0.24980164,0.08900452,0.21434021,17.532349,4.4158936,-51.27716,7.19622796,0.196420288,17.601929,5.18371584
4.7076E+12,-0.53956604,1.5586853,7.4780273,-0.18728638,0.09576416,0.23428345,17.532349,4.4158936,-51.27716,7.40442502,0.205517578,17.584534,4.99176028
4.7076E+12,-0.49531555,1.646698,7.039398,-0.11531067,0.108810425,0.25639343,17.532349,4.4158936,-51.27716,7.45960382,0.219241332,17.567139,4.79980472
4.70761E+12,-0.3189392,1.7000275,6.734543,-0.057861328,0.12654114,0.27890015,17.532349,4.4158936,-51.27716,7.34960022,0.236746216,17.549744,4.60784916
4.70761E+12,-0.17254639,1.7991943,6.4614105,-0.028121948,0.14665222,0.30166626,18.148804,5.6488037,-51.57776,7.10144652,0.2571167,17.65564,4.66247562
4.70762E+12,-0.094833374,1.9442596,6.2500305,-0.020019531,0.16247559,0.32032776,18.148804,5.6488037,-51.57776,6.79268186,0.27831421,17.778931,4.90905764
4.70762E+12,0.036727905,2.1128387,6.0145874,-0.026519775,0.1719513,0.3310852,18.148804,5.6488037,-51.57776,6.49999388,0.29767456,17.902222,5.15563966
4.70763E+12,0.2424469,2.3066254,5.787613,-0.041763306,0.16926575,0.33688354,18.148804,5.6488037,-51.57776,6.24963688,0.313772582,18.025513,5.40222168
4.70763E+12,0.49002075,2.5322723,5.789612,-0.06422424,0.1499939,0.3343048,18.02063,5.673218,-51.50299,6.06065068,0.324853512,18.1231692,5.65368656
4.70764E+12,0.5916748,2.6398773,5.952179,-0.09664917,0.11502075,0.32118225,18.02063,5.673218,-51.50299,5.95880438,0.32875671,18.0975344,5.65856942
4.70764E+12,0.5306549,2.7161865,5.998398,-0.1365509,0.06619263,0.29493713,18.02063,5.673218,-51.50299,5.90847788,0.323678584,18.0718996,5.66345228
4.70765E+12,0.5081024,2.6831818,6.193802,-0.18029785,0.013885498,0.25975037,18.02063,5.673218,-51.50299,5.9443208,0.309411618,18.0462648,5.66833514
4.70765E+12,0.4916687,2.5994873,6.3881683,-0.22709656,-0.032714844,0.22537231,17.260742,5.847168,-50.935364,6.06443186,0.287109372,17.8686524,5.708008
4.70766E+12,0.5252533,2.5085144,6.771576,-0.28735352,-0.073532104,0.19215393,17.260742,5.847168,-50.935364,6.26082466,0.258679198,17.7166748,5.742798
4.70766E+12,0.48150635,2.431427,7.3404694,-0.35453796,-0.103378296,0.16194153,17.260742,5.847168,-50.935364,6.53848274,0.226831054,17.5646972,5.777588
4.70767E+12,0.37983704,2.2455444,8.268814,-0.4223175,-0.12289429,0.13330078,17.260742,5.847168,-50.935364,6.99256594,0.194503784,17.4127196,5.812378
4.70767E+12,0.17427063,2.0477905,9.330399,-0.4827118,-0.13497925,0.10409546,17.118835,5.9921265,-50.238037,7.61988534,0.163372802,17.2323606,5.8761597
4.70768E+12,-0.072647095,1.9118042,10.210449,-0.52345276,-0.1376648,0.08097839,17.118835,5.9921265,-50.238037,8.38434148,0.134494018,17.2039792,5.9051514
4.70768E+12,-0.34976196,1.7006989,10.895004,-0.5303955,-0.12823486,0.06832886,17.118835,5.9921265,-50.238037,9.20902708,0.109729004,17.1755978,5.9341431
4.70769E+12,-0.485672,1.6492004,11.179703,-0.4997406,-0.103500366,0.067108154,17.118835,5.9921265,-50.238037,9.9768738,0.090762329,17.1472164,5.9631348
4.70769E+12,-0.5084381,1.7884521,11.32901,-0.4396057,-0.06904602,0.081954956,17.228699,6.248474,-50.631714,10.588913,0.080493164,17.1408078,6.043396
4.7077E+12,-0.539032,1.8747711,11.400909,-0.35902405,-0.039031982,0.10644531,17.228699,6.248474,-50.631714,11.003015,0.080963134,17.1627806,6.0946655
4.7077E+12,-0.60835266,1.8848267,11.356354,-0.2681427,-0.02508545,0.13044739,17.228699,6.248474,-50.631714,11.232196,0.090856934,17.1847534,6.145935
4.70771E+12,-0.50886536,1.983017,10.952164,-0.17304993,-0.024597168,0.15242004,17.228699,6.248474,-50.631714,11.243628,0.10767517,17.2067262,6.1972045
4.70771E+12,-0.2846222,2.1622772,10.246201,-0.08784485,-0.03060913,0.169693,17.434692,7.0739746,-51.887512,11.0569276,0.128192139,17.2698976,6.41357412
4.70772E+12,-0.1026001,2.284546,9.542862,0.003067017,-0.0524292,0.18933105,17.434692,7.0739746,-51.887512,10.699698,0.149667358,17.3110962,6.57867424
4.70772E+12,0.026519775,2.4517975,9.086487,0.06474304,-0.09082031,0.1995697,17.434692,7.0739746,-51.887512,10.2368136,0.168292236,17.3522948,6.74377436
4.70773E+12,0.23143005,2.5889587,8.725311,0.09291077,-0.15045166,0.19683838,16.775513,6.678772,-51.24359,9.710605,0.181570434,17.2616576,6.82983396
4.70773E+12,0.48283386,2.7378693,8.490616,0.088638306,-0.22070313,0.1859436,16.775513,6.678772,-51.24359,9.2182954,0.188275146,17.1710204,6.91589356
4.70774E+12,0.6296387,2.8650208,8.506165,0.04827881,-0.2841797,0.16319275,16.775513,6.678772,-51.24359,8.8702882,0.186975096,17.0391846,6.83685304
4.70774E+12,0.8622894,2.9216003,8.984802,-0.027755737,-0.3293152,0.13294983,16.775513,6.678772,-51.24359,8.7586762,0.175698852,16.9073488,6.75781252
4.70775E+12,0.98350525,2.890747,9.559326,-0.15414429,-0.3475647,0.087509155,16.775513,6.390381,-51.148987,8.853244,0.153286743,16.775513,6.6210938
4.70775E+12,1.0897522,2.7440948,10.309143,-0.29264832,-0.33955383,0.032470703,16.775513,6.390381,-51.148987,9.1700104,0.120413208,16.775513,6.5634156
4.70776E+12,1.166565,2.5600739,11.150772,-0.43063354,-0.31243896,-0.025680542,16.775513,6.390381,-51.148987,9.7020416,0.078088379,16.775513,6.5057374
4.70776E+12,1.1399841,2.2778625,11.867401,-0.5552521,-0.27519226,-0.08546448,16.775513,6.390381,-51.148987,10.3742888,0.028356933,16.775513,6.4480592
4.70777E+12,0.91244507,1.8658905,12.41449,-0.65371704,-0.2288208,-0.14682007,17.027283,6.5078735,-50.660706,11.0602264,-0.027597047,16.825867,6.4138795
4.70777E+12,0.4664154,1.478302,13.049515,-0.7221832,-0.18016052,-0.20146179,17.027283,6.5078735,-50.660706,11.7582642,-0.085391236,16.876221,6.437378
4.70778E+12,0.018997192,1.2419434,13.922104,-0.77230835,-0.13186646,-0.25091553,17.027283,6.5078735,-50.660706,12.4808564,-0.142068482,16.926575,6.4608765
4.70778E+12,-0.3619995,0.92559814,14.989716,-0.79519653,-0.09927368,-0.28230286,17.027283,6.5078735,-50.660706,13.2486452,-0.193392946,16.976929,6.484375
4.70779E+12,-0.6349182,0.60672,15.866135,-0.7879791,-0.07595825,-0.29309082,17.634583,8.566284,-50.07019,14.048392,-0.234918214,17.148743,6.9195556
4.70779E+12,-0.8279419,0.41348267,16.23439,-0.73703,-0.055496216,-0.28157043,17.634583,8.566284,-50.07019,14.812372,-0.261868286,17.270203,7.3312377
4.7078E+12,-0.9219208,0.28884888,15.959045,-0.6430359,-0.033081055,-0.25473022,17.634583,8.566284,-50.07019,15.394278,-0.272521972,17.391663,7.7429198
4.7078E+12,-0.8145447,0.3632965,15.2152405,-0.51794434,-0.009674072,-0.21430969,17.634583,8.566284,-50.07019,15.6529053,-0.265200804,17.513123,8.1546019
4.70781E+12,-0.58084106,0.5193176,14.271988,-0.37623596,0.012298584,-0.15966797,16.984558,8.035278,-51.04828,15.5093597,-0.240673826,17.504578,8.4600828
4.70781E+12,-0.23823547,0.6909332,13.361145,-0.26431274,0.031936646,-0.10809326,16.984558,8.035278,-51.04828,15.0083617,-0.203674314,17.374573,8.3538816
4.70782E+12,0.13772583,0.871521,12.680695,-0.19030762,0.0471344,-0.06590271,16.984558,8.035278,-51.04828,14.2976227,-0.16054077,17.244568,8.2476804
4.70782E+12,0.54756165,1.0537262,12.140228,-0.15611267,0.05126953,-0.0382843,16.984558,8.035278,-51.04828,13.5338593,-0.117251586,17.114563,8.1414792
4.70783E+12,1.0521088,1.2974854,11.692322,-0.1544342,0.04714966,-0.025817871,15.867615,8.006287,-51.956177,12.8292756,-0.079553222,16.7611694,8.0294798
4.70783E+12,1.5402222,1.5523834,11.420151,-0.1763916,0.03590393,-0.031921387,15.867615,8.006287,-51.956177,12.2589082,-0.054003906,16.5377808,8.0236816
4.70784E+12,1.9000397,1.7315521,11.281296,-0.21566772,0.01423645,-0.06352234,15.867615,8.006287,-51.956177,11.8429384,-0.045089722,16.3143922,8.0178834
4.70784E+12,2.0375824,1.7687073,11.336014,-0.26786804,-0.008422852,-0.11769104,15.867615,8.006287,-51.956177,11.5740022,-0.055447388,16.0910036,8.0120852
4.70785E+12,1.9462891,1.6302948,11.6527405,-0.3368988,-0.02218628,-0.19108582,16.088867,9.768677,-50.238037,11.4765047,-0.086007692,15.9118654,8.358765
4.70785E+12,1.7223969,1.4615784,12.024597,-0.4192505,-0.024353027,-0.27648926,16.088867,9.768677,-50.238037,11.5429597,-0.136141969,15.9561158,8.711243
4.70786E+12,1.4479828,1.2924347,12.259338,-0.5016937,-0.009628296,-0.35786438,16.088867,9.768677,-50.238037,11.7107971,-0.201330568,16.0003662,9.063721
4.70786E+12,1.2002869,0.9983368,12.484848,-0.5853119,0.024887085,-0.43478394,16.088867,9.768677,-50.238037,11.9515075,-0.275582888,16.0446166,9.416199
4.70787E+12,0.85112,0.5901489,12.794586,-0.6525421,0.056884766,-0.49957275,16.578674,9.416199,-50.852966,12.2432219,-0.35195923,16.1868284,9.6981814
4.70787E+12,0.40151978,0.17501831,13.195389,-0.6909485,0.06286621,-0.5503235,16.578674,9.416199,-50.852966,12.5517516,-0.423806766,16.2847898,9.6276858
4.70788E+12,-0.09637451,-0.16177368,13.580444,-0.69799805,0.039535522,-0.58099365,16.578674,9.416199,-50.852966,12.862921,-0.484707644,16.3827512,9.5571902
4.70788E+12,-0.40434265,-0.387146,13.93338,-0.6697235,-0.005462647,-0.590683,16.578674,9.416199,-50.852966,13.1977294,-0.531271368,16.4807126,9.4866946
4.70789E+12,-0.45643616,-0.5006714,14.1701355,-0.6132202,-0.06274414,-0.57743835,17.144775,9.489441,-51.745605,13.5347869,-0.55980225,16.6918942,9.4308474
4.70789E+12,-0.37332153,-0.49778748,14.198364,-0.52189636,-0.1335144,-0.5420685,17.144775,9.489441,-51.745605,13.8155425,-0.5683014,16.8051144,9.4454958
4.7079E+12,-0.23457336,-0.41049194,13.81604,-0.41238403,-0.20185852,-0.4970398,17.144775,9.489441,-51.745605,13.9396727,-0.55764466,16.9183346,9.4601442
4.7079E+12,-0.081710815,-0.2614441,13.211533,-0.30174255,-0.2482605,-0.44847107,17.144775,9.489441,-51.745605,13.8658905,-0.531140144,17.0315548,9.4747926
4.70791E+12,0.29907227,-0.17622375,12.645187,-0.21118164,-0.26167297,-0.40649414,16.946411,10.284424,-51.745605,13.6082519,-0.494302372,17.1051022,9.6484376
4.70791E+12,0.58229065,-0.17092896,12.548752,-0.15490723,-0.2479248,-0.37271118,16.946411,10.284424,-51.745605,13.2839752,-0.453356938,17.0654294,9.8074342
4.70792E+12,0.719223,-0.044403076,12.306168,-0.13417053,-0.21903992,-0.35165405,16.946411,10.284424,-51.745605,12.905536,-0.415274048,17.0257566,9.9664308
4.70792E+12,0.80223083,0.12275696,11.779419,-0.1274414,-0.16911316,-0.34051514,16.946411,10.284424,-51.745605,12.4982118,-0.383969116,16.9860838,10.1254274
4.70793E+12,0.94148254,0.19216919,11.142609,-0.12904358,-0.09440613,-0.33972168,16.539001,11.01532,-51.664734,12.084427,-0.362219238,16.864929,10.4306032
4.70793E+12,1.0199585,0.17616272,10.592087,-0.1434784,-0.00289917,-0.34379578,16.539001,11.01532,-51.664734,11.673807,-0.349679566,16.783447,10.5767824
4.70794E+12,0.9689789,0.16867065,10.122726,-0.17033386,0.08279419,-0.35551453,16.539001,11.01532,-51.664734,11.1886018,-0.346240236,16.701965,10.7229616
4.70794E+12,0.8922272,0.14382935,9.743515,-0.20606995,0.15377808,-0.3685608,16.539001,11.01532,-51.664734,10.6760712,-0.349621586,16.620483,10.8691408
4.70795E+12,0.8517151,0.23376465,9.370438,-0.24557495,0.210495,-0.3837433,15.588379,11.660767,-51.90277,10.194275,-0.358267218,16.3488766,11.1444094
4.70795E+12,0.71829224,0.24681091,9.197647,-0.28883362,0.25863647,-0.3977661,15.588379,11.660767,-51.90277,9.8052826,-0.369876102,16.1587522,11.2734988
4.70796E+12,0.5019989,0.17062378,8.988235,-0.3251648,0.28701782,-0.40615845,15.588379,11.660767,-51.90277,9.4845122,-0.382348636,15.9686278,11.4025882
4.70796E+12,0.3839264,0.11312866,8.716202,-0.3481903,0.29815674,-0.4087677,15.058899,11.485291,-52.249146,9.2032074,-0.39299927,15.6726074,11.4965824
4.70797E+12,0.2520752,0.07623291,8.662338,-0.36106873,0.29904175,-0.40344238,15.058899,11.485291,-52.249146,8.986972,-0.399975586,15.376587,11.5905766
4.70797E+12,0.08418274,-0.002685547,8.664383,-0.3708191,0.28804016,-0.38972473,15.058899,11.485291,-52.249146,8.845761,-0.401171872,15.270691,11.5554814
4.70798E+12,-0.027542114,0.049987793,8.569672,-0.37245178,0.26864624,-0.3705902,15.058899,11.485291,-52.249146,8.720166,-0.395736692,15.164795,11.5203862
4.70798E+12,-0.08746338,0.044143677,8.427307,-0.3671112,0.24839783,-0.3386383,16.348267,11.853027,-50.98877,8.6079804,-0.382232662,15.3167726,11.5588382
4.70799E+12,-0.097335815,0.06465149,8.266357,-0.35321045,0.2334137,-0.30026245,16.348267,11.853027,-50.98877,8.5180114,-0.360531612,15.5746462,11.6323854
4.70799E+12,0.005401611,0.09989929,8.241837,-0.3407135,0.2193451,-0.25909424,16.348267,11.853027,-50.98877,8.4339112,-0.331661984,15.8325198,11.7059326
4.708E+12,0.19247437,0.22521973,8.386948,-0.33035278,0.2052002,-0.21697998,16.348267,11.853027,-50.98877,8.3784242,-0.297113034,16.0903934,11.7794798
4.708E+12,0.5349121,0.45169067,8.58107,-0.31730652,0.18603516,-0.1789856,17.367554,11.889648,-50.177002,8.3807038,-0.258792114,16.5521244,11.8603512
4.70801E+12,0.88690186,0.74967957,8.52478,-0.29701233,0.159729,-0.14936829,17.367554,11.889648,-50.177002,8.4001984,-0.220938112,16.7559818,11.8676754
4.70801E+12,0.9386444,0.8581848,8.313004,-0.25628662,0.12294006,-0.13421631,17.367554,11.889648,-50.177002,8.4095278,-0.187728884,16.9598392,11.8749996
4.70802E+12,0.8548126,0.86486816,7.92659,-0.20602417,0.078933716,-0.13989258,17.367554,11.889648,-50.177002,8.3464784,-0.163888552,17.1636966,11.8823238
4.70802E+12,0.8493347,0.89538574,7.5898438,-0.15922546,0.032058716,-0.15446472,17.289734,11.657715,-50.405884,8.18705756,-0.1513855,17.35199,11.8432614
4.70803E+12,0.878067,0.9061279,7.299942,-0.12315369,-0.018081665,-0.17036438,17.289734,11.657715,-50.405884,7.93083196,-0.149661256,17.336426,11.7968748
4.70803E+12,0.82440186,0.85858154,7.106888,-0.10101318,-0.074539185,-0.18270874,17.289734,11.657715,-50.405884,7.64725356,-0.156329346,17.320862,11.7504882
4.70804E+12,0.810318,0.82606506,7.096451,-0.095199585,-0.13049316,-0.1933136,17.289734,11.657715,-50.405884,7.40394296,-0.168148804,17.305298,11.7041016
4.70804E+12,0.8840637,0.86650085,7.432358,-0.114593506,-0.1695404,-0.20150757,17.601013,13.21106,-50.708008,7.30509656,-0.180471802,17.3519898,11.968384
4.70805E+12,0.92922974,0.9202423,7.800415,-0.15890503,-0.17869568,-0.20756531,17.601013,13.21106,-50.708008,7.3472108,-0.19109192,17.4142456,12.279053
4.70805E+12,0.9487457,0.9220581,8.041092,-0.21549988,-0.15579224,-0.2135315,17.601013,13.21106,-50.708008,7.4954408,-0.199725344,17.4765014,12.589722
4.70806E+12,0.92718506,0.9158478,8.155731,-0.27122498,-0.105773926,-0.22009277,17.601013,13.21106,-50.708008,7.7052094,-0.20720215,17.5387572,12.900391
4.70806E+12,0.81970215,0.8956909,8.114456,-0.3164673,-0.04548645,-0.2268982,18.225098,14.231873,-50.291443,7.9088104,-0.21391907,17.72583,13.4152226
4.70807E+12,0.6214447,0.7877655,8.058853,-0.34873962,0.012939453,-0.23399353,18.225098,14.231873,-50.291443,8.0341094,-0.220416262,17.850647,13.6193852
4.70807E+12,0.38105774,0.65586853,8.138672,-0.35987854,0.048217773,-0.23777771,18.225098,14.231873,-50.291443,8.1017608,-0.226458742,17.975464,13.8235478
4.70808E+12,0.15550232,0.54145813,8.284058,-0.3517456,0.05155945,-0.2338562,18.225098,14.231873,-50.291443,8.150354,-0.230523682,18.100281,14.0277104
4.70809E+12,0.014877319,0.47705078,8.263672,-0.32585144,0.032424927,-0.22036743,18.492126,14.231873,-49.902344,8.1719422,-0.230578614,18.2785036,14.231873
4.70809E+12,0.091430664,0.5461731,8.086029,-0.28329468,0.00491333,-0.19619751,18.492126,14.231873,-49.902344,8.1662568,-0.224438476,18.3319092,14.231873
4.7081E+12,0.28601074,0.65800476,7.870987,-0.23606873,-0.021591187,-0.16386414,18.492126,14.231873,-49.902344,8.1286836,-0.210412598,18.3853148,14.231873
4.7081E+12,0.50479126,0.7777252,7.7663727,-0.1856842,-0.050735474,-0.12680054,18.492126,14.231873,-49.902344,8.05422374,-0.188217164,18.4387204,14.231873
4.70811E+12,0.6941681,0.9064636,7.639389,-0.13897705,-0.07800293,-0.09576416,16.539001,13.887024,-50.46234,7.92528994,-0.160598756,18.101501,14.1629032
4.70811E+12,0.8149719,1.0161743,7.264023,-0.09919739,-0.10002136,-0.076934814,16.539001,13.887024,-50.46234,7.72536014,-0.131912233,17.710876,14.0939334
4.70812E+12,0.9235687,1.1308136,6.782196,-0.063323975,-0.1184082,-0.06794739,16.539001,13.887024,-50.46234,7.46459354,-0.106262209,17.320251,14.0249636
4.70812E+12,1.0556793,1.2421112,6.539871,-0.03413391,-0.14152527,-0.065460205,16.539001,13.887024,-50.46234,7.19837034,-0.086581422,16.929626,13.9559938
4.70813E+12,1.052063,1.3368225,6.475815,-0.016815186,-0.17544556,-0.069869995,16.270447,14.183044,-50.74005,6.9402588,-0.075195313,16.4852902,13.946228
4.70813E+12,1.1622925,1.4012756,6.648224,-0.006027222,-0.22285461,-0.08506775,16.270447,14.183044,-50.74005,6.7420258,-0.073056031,16.4315794,14.005432
4.70814E+12,1.1577759,1.4333649,6.8123016,-6.71E-04,-0.26464844,-0.10282898,16.270447,14.183044,-50.74005,6.65168152,-0.078234864,16.3778686,14.064636
4.70814E+12,1.0052948,1.37323,6.8478546,0.004577637,-0.2939148,-0.12205505,16.270447,14.183044,-50.74005,6.66481324,-0.089056396,16.3241578,14.12384
4.70815E+12,0.9134369,1.3530273,6.9533997,0.013763428,-0.31011963,-0.14266968,16.603088,14.404297,-50.74005,6.74751898,-0.104498291,16.3369752,14.2272946
4.70815E+12,0.71255493,1.3476563,7.156494,0.02355957,-0.3157196,-0.15861511,16.603088,14.404297,-50.74005,6.88365478,-0.122247314,16.4035034,14.2715452
4.70816E+12,0.47784424,1.3028259,7.0290985,0.034622192,-0.30984497,-0.17115784,16.603088,14.404297,-50.74005,6.95982968,-0.139465332,16.4700316,14.3157958
4.70816E+12,0.36177063,1.2105408,6.870636,0.045288086,-0.28694153,-0.17803955,16.603088,14.404297,-50.74005,6.97149656,-0.154507446,16.5365598,14.3600464
4.70817E+12,0.2132721,1.1298981,7.054367,0.049057007,-0.24230957,-0.17332458,17.106628,14.656067,-50.001526,7.01279904,-0.164761352,16.703796,14.454651
4.70817E+12,0.025115967,1.0475159,7.3643646,0.03878784,-0.18411255,-0.16371155,17.106628,14.656067,-50.001526,7.09499202,-0.168969726,16.804504,14.505005
4.70818E+12,-0.12562561,1.052597,7.6672516,0.018356323,-0.11793518,-0.1486206,17.106628,14.656067,-50.001526,7.19714354,-0.166970824,16.905212,14.555359
4.70818E+12,-0.10531616,1.0977478,7.725952,0.018356323,-0.11793518,-0.1486206,17.106628,14.656067,-50.001526,7.33651424,-0.162463376,17.00592,14.605713
4.70819E+12,-0.058792114,1.1073151,8.067261,-0.001876831,0.0335083,-0.093048096,16.400146,14.619446,-50.354004,7.57583924,-0.145465085,16.9653316,14.6487428
4.70819E+12,-0.003936768,1.2338867,8.255859,0.00453186,0.11740112,-0.05581665,16.400146,14.619446,-50.354004,7.81613764,-0.121963499,16.8240352,14.6414186
4.7082E+12,0.1317749,1.3107147,8.103424,0.026931763,0.1860199,-0.024261475,16.400146,14.619446,-50.354004,7.96394952,-0.094073484,16.6827388,14.6340944
4.7082E+12,0.3175354,1.4069214,7.727295,0.07003784,0.24179077,0.006790161,16.088867,14.575195,-50.572205,7.9759582,-0.062991332,16.4791866,14.61792
4.70821E+12,0.46810913,1.5652008,7.205963,0.11593628,0.28659058,0.030639648,16.088867,14.575195,-50.572205,7.8719604,-0.027139282,16.2756344,14.6017456
4.70821E+12,0.6567688,1.707901,6.7864685,0.15211487,0.32330322,0.044769287,16.088867,14.575195,-50.572205,7.6158019,0.000424194,16.2133786,14.5928954
4.70822E+12,0.8023529,1.8396301,6.5398254,0.16798401,0.34913635,0.050994873,16.088867,14.575195,-50.572205,7.27259518,0.021786499,16.1511228,14.5840452
4.70822E+12,0.80033875,1.9112854,6.5388947,0.16847229,0.35430908,0.046020508,16.22467,14.985657,-50.97351,6.95968932,0.035842895,16.1160276,14.6572874
4.70823E+12,0.76979065,1.9695587,6.5898438,0.16061401,0.3308258,0.028778076,16.22467,14.985657,-50.97351,6.73219908,0.040240478,16.1431882,14.7393798
4.70823E+12,0.6816559,1.8937225,6.8481293,0.15185547,0.28511047,0.007217407,16.22467,14.985657,-50.97351,6.66063234,0.03555603,16.1703488,14.8214722
4.70824E+12,0.6151581,1.8756714,7.2875366,0.14477539,0.22854614,-0.015716553,16.22467,14.985657,-50.97351,6.76084596,0.023458862,16.1975094,14.9035646
4.70824E+12,0.468338,1.8389282,7.721695,0.14512634,0.1711731,-0.03327942,15.0177,14.399719,-49.32251,6.99721988,0.006604004,15.983276,14.8684694
4.70825E+12,0.17945862,1.773941,7.928406,0.1552887,0.11817932,-0.044570923,15.0177,14.399719,-49.32251,7.27512214,-0.011514283,15.741882,14.7512818
4.70825E+12,-0.00579834,1.6910706,8.225311,0.17564392,0.07380676,-0.05026245,15.0177,14.399719,-49.32251,7.60221558,-0.027322388,15.500488,14.6340942
4.70826E+12,-0.053253174,1.667633,8.540039,0.19096375,0.047561646,-0.04663086,15.0177,14.399719,-49.32251,7.94059752,-0.038092041,15.259094,14.5169066
4.70826E+12,-0.041122437,1.6588287,8.854492,0.1985321,0.035507202,-0.03265381,14.715576,14.231873,-48.89679,8.2539886,-0.041479493,14.9572752,14.3661498
4.70827E+12,0.019561768,1.6289978,9.207962,0.20358276,0.038635254,-0.010940552,14.715576,14.231873,-48.89679,8.551242,-0.037011719,14.8968504,14.3325806
4.70827E+12,0.124938965,1.631073,9.487793,0.20822144,0.05230713,0.013854981,14.715576,14.231873,-48.89679,8.8631194,-0.025326538,14.8364256,14.2990114
4.70828E+12,0.255661,1.6773682,9.728455,0.21560669,0.071502686,0.038375854,14.715576,14.231873,-48.89679,9.1637482,-0.007598878,14.7760008,14.2654422
4.70828E+12,0.3151245,1.711029,9.812988,0.23130798,0.09687805,0.06088257,16.046143,14.379883,-50.48523,9.418338,0.013903809,14.9816894,14.261475
4.70829E+12,0.26617432,1.7048187,9.839325,0.25242615,0.11946106,0.079437256,16.046143,14.379883,-50.48523,9.6153046,0.036322022,15.2478028,14.291077
4.70829E+12,0.17919922,1.6705017,9.852768,0.27372742,0.1359253,0.095840454,16.046143,14.379883,-50.48523,9.7442658,0.057678223,15.5139162,14.320679
4.7083E+12,0.17367554,1.678833,9.88089,0.29623413,0.14855957,0.11230469,16.046143,14.379883,-50.48523,9.8228852,0.077368165,15.7800296,14.350281
4.7083E+12,0.25808716,1.7178497,9.810333,0.31559753,0.15693665,0.1285553,16.11023,14.552307,-50.593567,9.8392608,0.095404054,16.0589604,14.4143678
4.70831E+12,0.4185028,1.7768402,9.580841,0.32867432,0.16293335,0.14549255,16.11023,14.552307,-50.593567,9.7928314,0.11232605,16.0717778,14.4488526
4.70831E+12,0.64682007,1.8196564,9.51091,0.3339386,0.16429138,0.16177368,16.11023,14.552307,-50.593567,9.7271484,0.128793335,16.0845952,14.4833374
4.70832E+12,0.83277893,1.9129639,9.707764,0.32159424,0.16018677,0.17019653,16.11023,14.552307,-50.593567,9.6981476,0.14366455,16.0974126,14.5178222
4.70832E+12,0.99942017,1.9894409,10.092926,0.2891388,0.15472412,0.17190552,16.088867,14.575195,-50.572205,9.7405548,0.155584716,16.1059574,14.5568846
4.70833E+12,1.0965729,2.0098114,10.429977,0.2471466,0.15065002,0.16436768,16.088867,14.575195,-50.572205,9.8644836,0.162747192,16.1016848,14.5614622
4.70833E+12,1.036438,1.9757538,10.780472,0.20741272,0.14619446,0.14628601,16.088867,14.575195,-50.572205,10.1044098,0.162905884,16.0974122,14.5660398
4.70834E+12,0.9395294,1.8551941,11.147888,0.16906738,0.1399231,0.12081909,16.088867,14.575195,-50.572205,10.4318054,0.154714966,16.0931396,14.5706174
4.70834E+12,0.7605591,1.6262512,11.534729,0.13665771,0.13018799,0.091674805,17.36145,13.619995,-51.815796,10.7971984,0.139010621,16.3433836,14.384155
4.70835E+12,0.523468,1.4025726,11.915115,0.11112976,0.11306763,0.06536865,17.36145,13.619995,-51.815796,11.1616362,0.117703247,16.5979002,14.193115
4.70835E+12,0.2861786,1.2598724,12.439056,0.09190369,0.08938599,0.045043945,17.36145,13.619995,-51.815796,11.563452,0.0938385,16.8524168,14.002075
4.70836E+12,0.21417236,1.176651,13.020905,0.075286865,0.065963745,0.033111572,17.36145,13.619995,-51.815796,12.0115386,0.071203612,17.1069334,13.811035
4.70836E+12,0.19204712,1.128006,13.613541,0.06535339,0.052993774,0.02935791,17.300415,13.066101,-50.820923,12.5046692,0.052911376,17.349243,13.5092162
4.70837E+12,0.08308411,1.0811462,13.914261,0.063934326,0.051864624,0.029632568,17.300415,13.066101,-50.820923,12.9805756,0.040502929,17.337036,13.3984374
4.70837E+12,-0.07261658,1.0058746,13.948669,0.0748291,0.07009888,0.03251648,17.300415,13.066101,-50.820923,13.3872864,0.033932495,17.324829,13.2876586
4.70838E+12,-0.20980835,0.9299774,13.745605,0.0925293,0.10661316,0.03945923,17.300415,13.066101,-50.820923,13.6485962,0.032815552,17.312622,13.1768798
4.70838E+12,-0.23025513,0.9358673,13.35051,0.109176636,0.1542511,0.04989624,17.289734,13.031006,-50.74005,13.7145172,0.036172486,17.2982788,13.059082
4.70839E+12,-0.29800415,0.9986725,12.941116,0.120773315,0.2034607,0.06852722,17.289734,13.031006,-50.74005,13.5800322,0.044006348,17.2961426,13.052063
4.70839E+12,-0.28468323,1.026825,12.787506,0.13006592,0.23568726,0.0868988,17.289734,13.031006,-50.74005,13.3546812,0.055459594,17.2940064,13.045044
4.7084E+12,-0.3587494,0.9500427,12.829742,0.12843323,0.26036072,0.10673523,17.289734,13.031006,-50.74005,13.1308958,0.070303344,17.2918702,13.038025
4.7084E+12,-0.42042542,0.963501,12.5401,0.12413025,0.27090454,0.1222229,16.26892,12.690735,-52.067566,12.8897948,0.086856078,17.0855712,12.9629518
4.70841E+12,-0.25126648,1.1285858,12.07724,0.12608337,0.27442932,0.13227844,16.26892,12.690735,-52.067566,12.6351408,0.103332518,16.8814084,12.8948976
4.70841E+12,-0.10783386,1.2327728,11.730774,0.12922668,0.27015686,0.1473999,16.26892,12.690735,-52.067566,12.3930724,0.119107054,16.6772456,12.8268434
4.70842E+12,-0.058166504,1.3140259,11.694656,0.12922668,0.27015686,0.1473999,16.26892,12.690735,-52.067566,12.1745024,0.131207274,16.4730828,12.7587892
4.70842E+12,0.07130432,1.5063477,11.708145,0.08203125,0.2627716,0.14855957,16.941833,13.710022,-50.41504,11.950183,0.139572142,16.4035026,12.8945924
4.70843E+12,0.33911133,1.598053,11.802063,0.025543213,0.27268982,0.12713623,16.941833,13.710022,-50.41504,11.8025756,0.140554808,16.5380852,13.0984498
4.70843E+12,0.35865784,1.616394,11.828232,-0.035614014,0.29377747,0.097732544,16.941833,13.710022,-50.41504,11.752774,0.133645629,16.6726678,13.3023072
4.70844E+12,0.2073822,1.4605865,11.751938,-0.09954834,0.33125305,0.055877686,16.941833,13.710022,-50.41504,11.7570068,0.115341186,16.8072504,13.5061646
4.70844E+12,-0.20803833,1.1936798,11.668625,-0.16714478,0.3789673,0.003234863,16.941833,13.710022,-50.41504,11.7518006,0.086508179,16.941833,13.710022
4.70845E+12,-0.6841736,0.8493805,11.698639,-0.2345581,0.42314148,-0.0501709,16.941833,13.710022,-50.41504,11.7498994,0.046762085,16.941833,13.710022
4.70845E+12,-1.388382,0.44152832,11.914276,-0.2957306,0.44999695,-0.091171265,16.941833,13.710022,-50.41504,11.772342,0.003100586,16.941833,13.710022
4.70846E+12,-1.9586182,0.07821655,12.137054,-0.35385132,0.4487152,-0.12013245,16.986084,13.664246,-50.376892,11.8341064,-0.040472413,16.9506832,13.7008668
4.70846E+12,-2.3129883,-0.21414185,12.581131,-0.39489746,0.42304993,-0.12110901,16.986084,13.664246,-50.376892,11.999945,-0.075869752,16.9595334,13.6917116
4.70847E+12,-2.4056702,-0.3739624,12.8880005,-0.41700745,0.3741455,-0.09336853,16.986084,13.664246,-50.376892,12.2438201,-0.095190431,16.9683836,13.6825564
4.70847E+12,-2.393097,-0.47994995,13.137543,-0.4125061,0.3020935,-0.04560852,16.986084,13.664246,-50.376892,12.5316009,-0.094277955,16.9772338,13.6734012
4.70848E+12,-2.3548126,-0.5852051,13.384415,-0.38243103,0.21076965,0.014465332,18.214417,12.27417,-49.575806,12.8256287,-0.073150636,17.2317506,13.3862308
4.70848E+12,-2.2558289,-0.6437073,13.698364,-0.33088684,0.10643005,0.07701111,18.214417,12.27417,-49.575806,13.1378907,-0.033721924,17.4774172,13.1082156
4.70849E+12,-2.1685333,-0.6795349,13.842773,-0.25730896,-0.013137817,0.14813232,18.214417,12.27417,-49.575806,13.3902191,0.020126342,17.7230838,12.8302004
4.70849E+12,-2.0036774,-0.6808624,13.960251,-0.18008423,-0.11454773,0.21620178,18.214417,12.27417,-49.575806,13.6046692,0.082040404,17.9687504,12.5521852
4.7085E+12,-1.7881165,-0.6042328,13.916428,-0.101760864,-0.19613647,0.2817688,19.351196,14.060974,-49.734497,13.7604462,0.147515868,18.4417728,12.6315308
4.7085E+12,-1.5050354,-0.48989868,13.704102,-0.024505615,-0.25387573,0.34318542,19.351196,14.060974,-49.734497,13.8243836,0.213259886,18.6691286,12.9888916
4.70851E+12,-1.2509155,-0.33685303,13.202301,0.04710388,-0.28605652,0.39590454,19.351196,14.060974,-49.734497,13.725171,0.277038572,18.8964844,13.3462524
4.70851E+12,-0.99357605,-0.17933655,12.611862,0.11099243,-0.29382324,0.44067383,19.351196,14.060974,-49.734497,13.4789888,0.335546874,19.1238402,13.7036132
4.70852E+12,-0.7287445,-0.002822876,12.171097,0.15939331,-0.28373718,0.47473145,19.332886,13.977051,-49.847412,13.121158,0.387252808,19.347534,14.0441894
4.70852E+12,-0.57572937,0.10810852,11.716202,0.18708801,-0.26896667,0.49420166,19.332886,13.977051,-49.847412,12.6811128,0.42973938,19.343872,14.0274048
4.70853E+12,-0.5172272,0.14805603,11.256531,0.2052002,-0.25205994,0.500885,19.332886,13.977051,-49.847412,12.1915986,0.461279296,19.34021,14.0106202
4.70853E+12,-0.48661804,0.14463806,10.838104,0.20982361,-0.22512817,0.49752808,19.332886,13.977051,-49.847412,11.7187592,0.481604004,19.336548,13.9938356
4.70854E+12,-0.506897,0.16619873,10.509277,0.19485474,-0.18507385,0.4907074,19.198608,13.421631,-50.88806,11.2982422,0.491610718,19.3060304,13.865967
4.70854E+12,-0.54556274,0.20620728,10.270493,0.1634674,-0.13414001,0.4830475,19.198608,13.421631,-50.88806,10.9181214,0.493273928,19.2791748,13.754883
4.70855E+12,-0.5810394,0.21348572,10.140991,0.11993408,-0.07853699,0.4763794,19.198608,13.421631,-50.88806,10.6030792,0.489709476,19.2523192,13.643799
4.70855E+12,-0.6039734,0.2388916,10.081543,0.07608032,-0.026626587,0.47027588,19.198608,13.421631,-50.88806,10.3680816,0.483587652,19.2254636,13.532715
4.70856E+12,-0.56404114,0.32051086,9.933945,0.03755188,0.020904541,0.46507263,19.351196,15.090942,-50.74005,10.1872498,0.477096562,19.2291256,13.7554932
4.70856E+12,-0.45220947,0.40293884,9.612152,0.009262085,0.05970764,0.46141052,19.351196,15.090942,-50.74005,10.0078248,0.471237186,19.2596432,14.0893554
4.70857E+12,-0.31028748,0.4608612,9.277267,-0.006225586,0.082229614,0.45829773,19.351196,15.090942,-50.74005,9.8091796,0.466287232,19.2901608,14.4232176
4.70857E+12,-0.3158722,0.499588,9.009979,-0.013473511,0.08432007,0.44921875,19.351196,15.090942,-50.74005,9.5829772,0.460855102,19.3206784,14.7570798
4.70858E+12,-0.34779358,0.48442078,8.80246,-0.015655518,0.06538391,0.43312073,19.462585,14.752197,-50.68512,9.3271606,0.453424072,19.3734738,15.023193
4.70858E+12,-0.36462402,0.4685974,8.623688,-0.015167236,0.027923584,0.4148407,19.462585,14.752197,-50.68512,9.0651092,0.443377686,19.3957516,14.955444
4.70859E+12,-0.3429718,0.49572754,8.50647,-0.009277344,-0.022994995,0.39727783,19.462585,14.752197,-50.68512,8.8439728,0.430551148,19.4180294,14.887695
4.70859E+12,-0.28399658,0.49186707,8.412262,-7.93E-04,-0.08105469,0.38059998,19.462585,14.752197,-50.68512,8.6709718,0.415011598,19.4403072,14.819946
4.7086E+12,-0.13778687,0.5548401,8.343277,0.007507324,-0.13464355,0.3634491,19.664001,12.968445,-50.465393,8.5376314,0.397857668,19.5028682,14.3954466
4.7086E+12,-0.040603638,0.58903503,8.248245,0.01399231,-0.18383789,0.345047,19.664001,12.968445,-50.465393,8.4267884,0.380242922,19.5431514,14.0386962
4.70861E+12,-0.040740967,0.6664276,8.158661,0.013214111,-0.21755981,0.32640076,19.664001,12.968445,-50.465393,8.333783,0.362554934,19.5834346,13.6819458
4.70861E+12,-0.025772095,0.65057373,8.032852,0.005508423,-0.23512268,0.3023529,19.664001,12.968445,-50.465393,8.2390594,0.343569948,19.6237178,13.3251954
4.70862E+12,-0.047409058,0.58447266,8.024963,-0.013687134,-0.23905945,0.27624512,17.977905,12.687683,-50.74005,8.1615996,0.322698976,19.3267818,12.9122926
4.70862E+12,-0.11174011,0.5140991,8.0504,-0.038238525,-0.2354126,0.2472229,17.977905,12.687683,-50.74005,8.1030242,0.299453736,18.9895626,12.8561402
4.70863E+12,-0.2091217,0.46148682,8.211929,-0.06829834,-0.22390747,0.22138977,17.977905,12.687683,-50.74005,8.095761,0.27472229,18.6523434,12.7999878
4.70863E+12,-0.3231659,0.39871216,8.397232,-0.10391235,-0.20097351,0.193573,17.977905,12.687683,-50.74005,8.1434752,0.248156738,18.3151242,12.7438354
4.70864E+12,-0.41584778,0.3356781,8.576782,-0.13067627,-0.17269897,0.17242432,18.016052,12.64801,-50.473022,8.2522612,0.222171022,17.9855344,12.6797484
4.70864E+12,-0.4713745,0.29544067,8.447388,-0.14830017,-0.14015198,0.16023254,18.016052,12.64801,-50.473022,8.3367462,0.198968506,17.9931638,12.6718138
4.70865E+12,-0.6120148,0.19926453,8.33931,-0.15362549,-0.102996826,0.15260315,18.016052,12.64801,-50.473022,8.3945282,0.180044556,18.0007932,12.6638792
4.70865E+12,-0.689209,0.12434387,8.1940155,-0.15362549,-0.102996826,0.15260315,18.016052,12.64801,-50.473022,8.3909455,0.166287232,18.0084226,12.6559446
4.70866E+12,-0.8060608,0.054092407,7.960434,-0.1388855,-0.034606934,0.15052795,18.525696,12.3046875,-49.772644,8.3035859,0.157678222,18.1179808,12.5793455
4.70866E+12,-0.8647461,0.02470398,7.8542786,-0.12458801,-0.009246826,0.16038513,18.525696,12.3046875,-49.772644,8.15908522,0.155270384,18.2199096,12.510681
4.70867E+12,-0.9690094,0.03741455,7.718445,-0.10652161,0.008560181,0.17747498,18.525696,12.3046875,-49.772644,8.01329662,0.158718872,18.3218384,12.4420165
4.70867E+12,-0.9111786,0.07141113,7.5951233,-0.08314514,0.01838684,0.20097351,19.694519,11.657715,-50.405884,7.86445928,0.168392944,18.6575318,12.2439575
4.70868E+12,-0.71066284,0.22058105,7.4250336,-0.055023193,0.019958496,0.22943115,19.694519,11.657715,-50.405884,7.7106629,0.183758544,18.9932252,12.0458985
4.70868E+12,-0.44000244,0.4205475,7.155243,-0.0206604,0.017120361,0.2579651,19.694519,11.657715,-50.405884,7.5496247,0.205245974,19.2269898,11.916504
4.70869E+12,-0.070373535,0.6062927,6.8643036,0.017364502,0.009902954,0.2806549,19.694519,11.657715,-50.405884,7.3516297,0.229299928,19.4607544,11.7871095
4.70869E+12,0.08946228,0.74191284,6.5881805,0.067611694,-0.007720947,0.29542542,19.094849,12.055969,-50.209045,7.1255768,0.252890016,19.574585,11.7373658
4.7087E+12,0.11830139,0.80648804,6.2595215,0.11480713,-0.03074646,0.29599,19.094849,12.055969,-50.209045,6.85845644,0.271893314,19.454651,11.8170166
4.7087E+12,0.07395935,0.88475037,5.8973083,0.15914917,-0.05973816,0.28640747,19.094849,12.055969,-50.209045,6.55291138,0.283288578,19.334717,11.8966674
4.70871E+12,0.09233093,0.9122467,5.5627747,0.20028687,-0.09451294,0.2743988,19.094849,12.055969,-50.209045,6.23441772,0.286575318,19.214783,11.9763182
4.70871E+12,0.11381531,1.0057373,5.255905,0.23446655,-0.13046265,0.2629547,17.791748,13.082886,-49.682617,5.912738,0.283035278,18.8342288,12.2613524
4.70872E+12,0.06248474,1.1405182,4.937454,0.26010132,-0.16325378,0.25326538,17.791748,13.082886,-49.682617,5.5825927,0.27460327,18.5736086,12.4667358
4.70872E+12,0.11566162,1.2104034,4.7680817,0.27496338,-0.18955994,0.24557495,17.791748,13.082886,-49.682617,5.28430474,0.26452026,18.3129884,12.6721192
4.70873E+12,0.19190979,1.2353058,4.5554047,0.27392578,-0.20315552,0.2394104,17.791748,13.082886,-49.682617,5.01592402,0.255120846,18.0523682,12.8775026
4.70873E+12,0.3467102,1.321167,4.4465485,0.2585144,-0.20521545,0.23396301,18.148804,13.201904,-49.568176,4.79267878,0.247033688,17.8631592,13.1066896
4.70874E+12,0.41911316,1.4322357,4.476776,0.23086548,-0.19544983,0.22807312,18.148804,13.201904,-49.568176,4.63685298,0.240057372,17.9345704,13.1304932
4.70874E+12,0.38459778,1.4628296,4.631546,0.19184875,-0.17530823,0.21746826,18.148804,13.201904,-49.568176,4.57567138,0.232897948,18.0059816,13.1542968
4.70875E+12,0.30996704,1.3704224,4.990799,0.14241028,-0.14628601,0.19941711,18.148804,13.201904,-49.568176,4.62021484,0.22366638,18.0773928,13.1781004
4.70875E+12,0.21917725,1.3338776,5.340149,0.09211731,-0.11412048,0.18041992,18.392944,12.590027,-49.806213,4.7771637,0.211868284,18.197632,13.0795286
4.70876E+12,0.16108704,1.3510742,5.6512146,0.0579834,-0.0899353,0.16719055,18.392944,12.590027,-49.806213,5.01809692,0.198513792,18.24646,12.9571532
4.70876E+12,0.107803345,1.3325806,5.930374,0.03942871,-0.073532104,0.16119385,18.392944,12.590027,-49.806213,5.30881652,0.185137938,18.295288,12.8347778
4.70877E+12,0.005661011,1.2906342,6.1141815,0.033676147,-0.063308716,0.15901184,18.392944,12.590027,-49.806213,5.60534362,0.173446654,18.344116,12.7124024
4.70877E+12,-0.04159546,1.2634735,6.2235413,0.038146973,-0.058746338,0.15802002,18.580627,11.485291,-50.361633,5.85189208,0.165167236,18.4304806,12.3690798
4.70878E+12,0.024307251,1.2778625,6.3278046,0.051498413,-0.061203003,0.15919495,18.580627,11.485291,-50.361633,6.0494232,0.160922242,18.4680172,12.1481326
4.70878E+12,0.12832642,1.3102722,6.4224396,0.07096863,-0.0717926,0.16271973,18.580627,11.485291,-50.361633,6.2036682,0.160028078,18.5055538,11.9271854
4.70879E+12,0.2637329,1.387146,6.5224915,0.08706665,-0.08622742,0.16311646,18.580627,11.485291,-50.361633,6.3220917,0.1604126,18.5430904,11.7062382
4.7088E+12,0.4172058,1.4255066,6.7910767,0.091934204,-0.09738159,0.15887451,18.148804,11.485291,-50.572205,6.45747074,0.160385134,18.4942624,11.485291
4.7088E+12,0.44544983,1.4072723,7.136139,0.08270264,-0.101867676,0.14701843,18.148804,11.485291,-50.572205,6.63999028,0.158184816,18.4078978,11.485291
4.70881E+12,0.35679626,1.3855286,7.5237427,0.06373596,-0.09849548,0.12701416,18.148804,11.485291,-50.572205,6.8791779,0.151748658,18.3215332,11.485291
4.70881E+12,0.28337097,1.37854,7.852188,0.040985107,-0.08520508,0.10095215,18.148804,11.485291,-50.572205,7.16512758,0.139395142,18.2351686,11.485291
4.70882E+12,0.22262573,1.3492737,8.08963,0.021026611,-0.06614685,0.076538086,17.570496,11.485291,-50.854492,7.47855528,0.122079467,18.0331424,11.485291
4.70882E+12,0.22573853,1.2880554,8.205093,0.009674072,-0.0488739,0.053588867,17.570496,11.485291,-50.854492,7.76135854,0.101022339,17.9174808,11.485291
4.70883E+12,0.12112427,1.2807312,8.31987,0.006713867,-0.0415802,0.03225708,17.570496,11.485291,-50.854492,7.99810474,0.078070069,17.8018192,11.485291
4.70883E+12,0.08035278,1.2646179,8.552261,0.008178711,-0.0448761,0.01411438,17.570496,11.485291,-50.854492,8.2038084,0.055490113,17.6861576,11.485291
4.70884E+12,0.13725281,1.3335419,8.905228,0.013473511,-0.05973816,-0.003143311,17.596436,10.662842,-51.460266,8.4144164,0.034671021,17.575684,11.3208012
4.70884E+12,0.113357544,1.279892,9.202789,0.023834229,-0.08528137,-0.021636963,17.596436,10.662842,-51.460266,8.6370482,0.015036011,17.580872,11.1563114
4.70885E+12,-0.00189209,1.1970215,9.262985,0.043121338,-0.113586426,-0.04295349,17.596436,10.662842,-51.460266,8.8486266,-0.004272461,17.58606,10.9918216
4.70885E+12,-0.22459412,1.1359711,9.379501,0.06201172,-0.13166809,-0.06576538,17.596436,10.662842,-51.460266,9.0605528,-0.023876953,17.591248,10.8273318
4.70886E+12,-0.4170227,1.0312042,9.477875,0.076675415,-0.1383667,-0.085739136,18.66455,9.596252,-51.745605,9.2456756,-0.043847656,17.8100588,10.449524
4.70886E+12,-0.5144043,0.9918213,9.585266,0.08100891,-0.13395691,-0.09851074,18.66455,9.596252,-51.745605,9.3816832,-0.062921142,18.0236816,10.236206
4.70887E+12,-0.5305023,0.9576111,9.702576,0.0756073,-0.12133789,-0.105026245,18.66455,9.596252,-51.745605,9.4816406,-0.079598998,18.2373044,10.022888
4.70887E+12,-0.55651855,1.001236,9.826065,0.06555176,-0.10520935,-0.10786438,18.66455,9.596252,-51.745605,9.5942566,-0.092581176,18.4509272,9.80957
4.70888E+12,-0.643631,1.0011444,9.8233185,0.056777954,-0.092056274,-0.107940674,18.24646,10.513306,-51.174927,9.6830201,-0.101016235,18.580932,9.7796628
4.70888E+12,-0.7300873,0.9481201,10.061798,0.04257202,-0.083236694,-0.11224365,18.24646,10.513306,-51.174927,9.7998047,-0.106317138,18.497314,9.9630736
4.70889E+12,-0.7149811,0.914978,10.291153,0.023849487,-0.073898315,-0.115493774,18.24646,10.513306,-51.174927,9.9409821,-0.109713745,18.413696,10.1464844
4.70889E+12,-0.68299866,0.94467163,10.670212,0.023849487,-0.073898315,-0.115493774,18.24646,10.513306,-51.174927,10.1345093,-0.11180725,18.330078,10.3298952
4.7089E+12,-0.4446106,0.98735046,11.151382,-0.013809204,-0.0897522,-0.12075806,17.120361,11.656189,-50.572205,10.3995727,-0.114385986,18.0212402,10.7418826
4.7089E+12,-0.30551147,0.9982605,11.4995575,-0.029769897,-0.103271484,-0.12484741,17.120361,11.656189,-50.572205,10.7348205,-0.117767334,17.7960204,10.9704592
4.70891E+12,-0.36079407,0.9171295,11.871353,-0.04109192,-0.109298706,-0.1355896,17.120361,11.656189,-50.572205,11.0967315,-0.122436524,17.5708006,11.1990358
4.70891E+12,-0.53948975,0.91856384,12.1539,-0.055160522,-0.10107422,-0.15338135,16.43219,11.828613,-50.572205,11.4692809,-0.130014039,17.2079466,11.4620972
4.70892E+12,-0.5075226,0.9553375,12.232971,-0.06770325,-0.0818634,-0.17282104,16.43219,11.828613,-50.572205,11.7818327,-0.141479492,16.8450926,11.7251586
4.70892E+12,-0.44444275,0.87719727,12.24559,-0.076690674,-0.060287476,-0.1906128,16.43219,11.828613,-50.572205,12.0006743,-0.15545044,16.7074584,11.7596434
4.70893E+12,-0.5543823,0.7460327,12.344116,-0.0818634,-0.047027588,-0.20585632,16.43219,11.828613,-50.572205,12.169586,-0.171652222,16.5698242,11.7941282
4.70893E+12,-0.6721039,0.59664917,12.579025,-0.088638306,-0.049957275,-0.22743225,16.903687,11.355591,-50.84839,12.3111204,-0.190020752,16.5264894,11.7340086
4.70894E+12,-0.7895355,0.52589417,12.798904,-0.09605408,-0.06463623,-0.24409485,16.903687,11.355591,-50.84839,12.4401212,-0.208163452,16.6207888,11.6394042
4.70894E+12,-0.90270996,0.43553162,13.167313,-0.09313965,-0.08695984,-0.25387573,16.903687,11.355591,-50.84839,12.6269896,-0.22437439,16.7150882,11.5447998
4.70895E+12,-1.022049,0.31214905,13.542618,-0.07936096,-0.11868286,-0.2588501,16.903687,11.355591,-50.84839,12.8863952,-0.23802185,16.8093876,11.4501954
4.70895E+12,-1.1443176,0.20550537,13.958374,-0.05569458,-0.15299988,-0.25772095,16.516113,11.16333,-51.64032,13.2092468,-0.248394776,16.8261722,11.3171388
4.70896E+12,-1.3607941,0.058883667,14.329422,-0.021087646,-0.1807251,-0.24990845,16.516113,11.16333,-51.64032,13.5593262,-0.252890016,16.7486574,11.2786866
4.70896E+12,-1.5422668,-0.044891357,14.455948,0.028213501,-0.19877625,-0.23426819,16.516113,11.16333,-51.64032,13.890735,-0.250924684,16.6711426,11.2402344
4.70897E+12,-1.642334,-0.08843994,14.43956,0.083465576,-0.19436646,-0.20982361,16.516113,11.16333,-51.64032,14.1451844,-0.24211426,16.5936278,11.2017822
4.70897E+12,-1.6237488,-0.04574585,14.1354065,0.13963318,-0.17047119,-0.17453003,15.916443,11.314392,-52.0813,14.2637421,-0.225250246,16.396179,11.1935424
4.70898E+12,-1.4288025,0.1179657,13.61557,0.19203186,-0.13270569,-0.13031006,15.916443,11.314392,-52.0813,14.1951813,-0.199768068,16.276245,11.2237548
4.70898E+12,-1.0481567,0.32505798,12.999741,0.23519897,-0.087753296,-0.084365845,15.916443,11.314392,-52.0813,13.9292451,-0.166659547,16.156311,11.2539672
4.70899E+12,-0.6451111,0.53234863,12.462494,0.25982666,-0.039489746,-0.04096985,15.916443,11.314392,-52.0813,13.5305543,-0.127999879,16.036377,11.2841796
4.70899E+12,-0.3242798,0.6983948,12.058884,0.260849,0.004226685,-0.008926392,16.76178,10.890198,-51.667786,13.0544191,-0.087820435,16.0855104,11.2295532
4.709E+12,-0.040924072,0.8154144,11.671158,0.241745,0.03327942,0.004257202,16.76178,10.890198,-51.667786,12.5615694,-0.052062989,16.2545778,11.1447144
4.709E+12,0.13291931,0.91160583,11.380478,0.2116394,0.049423218,6.87E-04,16.76178,10.890198,-51.667786,12.114551,-0.025863648,16.4236452,11.0598756
4.70901E+12,0.25756836,1.0305176,11.114365,0.17889404,0.051483154,-0.01612854,16.76178,10.890198,-51.667786,11.7374758,-0.012216187,16.5927126,10.9750368
4.70901E+12,0.41215515,1.1426392,10.921539,0.14457703,0.03652954,-0.040527344,17.181396,11.808777,-51.09558,11.4292848,-0.012127686,16.8457032,11.0739138
4.70902E+12,0.5688019,1.2045593,10.923477,0.10368347,0.002716065,-0.07272339,17.181396,11.808777,-51.09558,11.2022034,-0.024887085,16.9296264,11.2576296
4.70902E+12,0.6177063,1.1352081,11.153488,0.057647705,-0.04484558,-0.11218262,17.181396,11.808777,-51.09558,11.0986694,-0.04817505,17.0135496,11.4413454
4.70903E+12,0.6143036,1.0245972,11.479935,0.012542725,-0.09597778,-0.15390015,17.181396,11.808777,-51.09558,11.1185608,-0.079092409,17.0974728,11.6250612
4.70903E+12,0.58177185,0.9564972,11.759811,-0.028533936,-0.14677429,-0.19844055,17.118835,12.515259,-50.907898,11.24765,-0.115554811,17.1688838,11.9500734
4.70904E+12,0.5510864,0.86505127,11.857697,-0.06347656,-0.1904602,-0.24214172,17.118835,12.515259,-50.907898,11.4348816,-0.155877686,17.1563716,12.0913698
4.70904E+12,0.5345001,0.77867126,12.041992,-0.095321655,-0.21836853,-0.27842712,17.118835,12.515259,-50.907898,11.6585846,-0.197018432,17.1438594,12.2326662
4.70905E+12,0.59143066,0.670105,12.271561,-0.13157654,-0.23626709,-0.31166077,17.118835,12.515259,-50.907898,11.8821992,-0.236914062,17.1313472,12.3739626
4.70905E+12,0.5990753,0.58680725,12.478577,-0.1643219,-0.24594116,-0.3380432,17.469788,11.695862,-50.564575,12.0819276,-0.273742672,17.1890256,12.3513796
4.70906E+12,0.65919495,0.48631287,12.595993,-0.19081116,-0.25112915,-0.36209106,17.469788,11.695862,-50.564575,12.249164,-0.306472774,17.2592162,12.1875002
4.70906E+12,0.6606903,0.3882904,12.756363,-0.21334839,-0.24873352,-0.3843689,17.469788,11.695862,-50.564575,12.4288972,-0.33491821,17.3294068,12.0236208
4.70907E+12,0.55003357,0.26757813,13.006668,-0.23695374,-0.23828125,-0.40449524,17.469788,11.695862,-50.564575,12.6218324,-0.360131834,17.3995974,11.8597414
4.70907E+12,0.44909668,0.10572815,13.271576,-0.25624084,-0.2244873,-0.4205017,16.567993,11.431885,-50.750732,12.8218354,-0.38190002,17.289429,11.6430666
4.70908E+12,0.33570862,-0.025726318,13.483078,-0.26863098,-0.20947266,-0.4330597,16.567993,11.431885,-50.750732,13.0227356,-0.40090332,17.10907,11.5902712
4.70908E+12,0.26611328,-0.115371704,13.548096,-0.26641846,-0.19134521,-0.43571472,16.567993,11.431885,-50.750732,13.2131562,-0.415628052,16.928711,11.5374758
4.70909E+12,0.25524902,-0.13943481,13.522217,-0.25346375,-0.16137695,-0.4310608,16.567993,11.431885,-50.750732,13.366327,-0.424966432,16.748352,11.4846804
4.70909E+12,0.30400085,-0.20332336,13.407852,-0.23432922,-0.11982727,-0.41479492,16.088867,11.485291,-50.907898,13.4465638,-0.427026368,16.4721678,11.4425662
4.7091E+12,0.38186646,-0.20317078,13.114731,-0.20872498,-0.07336426,-0.39437866,16.088867,11.485291,-50.907898,13.4151948,-0.42180176,16.3763426,11.4532474
4.7091E+12,0.5196991,-0.17449951,12.792679,-0.18130493,-0.020767212,-0.37397766,16.088867,11.485291,-50.907898,13.277115,-0.409985352,16.2805174,11.4639286
4.70911E+12,0.6053467,-0.13781738,12.498871,-0.15301514,0.045074463,-0.34962463,16.984558,11.613464,-51.283264,13.06727,-0.392767334,16.3638304,11.5002444
4.70911E+12,0.7028961,-0.04121399,12.189514,-0.13224792,0.111450195,-0.32893372,16.984558,11.613464,-51.283264,12.8007294,-0.372341918,16.4471434,11.5365602
4.70912E+12,0.8855591,0.031021118,11.737244,-0.11135864,0.17808533,-0.3136902,16.984558,11.613464,-51.283264,12.4666078,-0.352120974,16.6262816,11.5621948
4.70912E+12,1.2186584,0.23580933,11.252518,-0.08720398,0.23983765,-0.30078125,16.984558,11.613464,-51.283264,12.0941652,-0.333401492,16.8054198,11.5878294
4.70913E+12,1.4412384,0.4376526,10.682388,-0.05897522,0.29571533,-0.2919464,15.866089,12.562561,-50.52643,11.672107,-0.31699524,16.7608642,11.8032834
4.70913E+12,1.4569092,0.5419922,10.036865,-0.03366089,0.3380432,-0.2962494,15.866089,12.562561,-50.52643,11.1797058,-0.306320194,16.5371704,11.9931028
4.70914E+12,1.1931,0.42938232,9.391632,-0.009933472,0.36676025,-0.31469727,15.866089,12.562561,-50.52643,10.6201294,-0.303472904,16.3134766,12.1829222
4.70914E+12,0.95140076,0.27789307,9.054886,0.003417969,0.3782196,-0.33807373,15.866089,12.562561,-50.52643,10.0836578,-0.30834961,16.0897828,12.3727416
4.70915E+12,0.6456299,0.14050293,9.015305,0.002624512,0.37709045,-0.35621643,15.402222,12.858582,-50.238037,9.6362152,-0.319436646,15.7733156,12.6217652
4.70915E+12,0.3706665,0.08157349,8.911316,-0.008056641,0.36384583,-0.3638916,15.402222,12.858582,-50.238037,9.2820008,-0.333825686,15.6805422,12.6809694
4.70916E+12,0.19276428,0.04711914,8.810135,-0.016143799,0.35006714,-0.35957336,15.402222,12.858582,-50.238037,9.0366548,-0.346490478,15.5877688,12.7401736
4.70916E+12,0.094314575,0.027404785,8.549423,-0.015640259,0.3360138,-0.34396362,15.402222,12.858582,-50.238037,8.868213,-0.352343748,15.4949954,12.7993778
4.70917E+12,0.07858276,0.07470703,8.352661,-0.004516602,0.3092804,-0.3139038,15.261841,12.162781,-50.100708,8.727768,-0.347509762,15.3741458,12.7194218
4.70917E+12,0.15777588,0.083099365,8.267746,0.010681152,0.27545166,-0.28173828,15.261841,12.162781,-50.100708,8.5782562,-0.332614132,15.3460696,12.5802616
4.70918E+12,0.26275635,0.16726685,8.217377,0.021469116,0.23799133,-0.24723816,15.261841,12.162781,-50.100708,8.4394684,-0.309283444,15.3179934,12.4411014
4.70918E+12,0.3258667,0.21234131,8.202209,0.028762817,0.20050049,-0.2132721,15.261841,12.162781,-50.100708,8.3178832,-0.280023192,15.2899172,12.3019412
4.70919E+12,0.42196655,0.30960083,8.120163,0.03416443,0.1673584,-0.18585205,16.908264,11.720276,-51.435852,8.2320312,-0.248400878,15.5911256,12.07428
4.70919E+12,0.6493988,0.4670868,8.015366,0.036697388,0.13955688,-0.16287231,16.908264,11.720276,-51.435852,8.1645722,-0.21819458,15.9204102,11.985779
4.7092E+12,0.7874603,0.60461426,7.936264,0.037857056,0.11260986,-0.14329529,16.908264,11.720276,-51.435852,8.0982758,-0.190505982,16.2496948,11.897278
4.7092E+12,0.82099915,0.6495819,7.944809,0.03555298,0.09335327,-0.13378906,16.908264,11.720276,-51.435852,8.0437622,-0.167816162,16.5789794,11.808777
4.70921E+12,0.8069763,0.6756134,8.0503845,0.025222778,0.08074951,-0.1338501,17.289734,11.657715,-51.745605,8.0133973,-0.151931762,16.984558,11.7077638
4.70921E+12,0.75798035,0.68348694,8.126389,0.009628296,0.073913574,-0.13853455,17.289734,11.657715,-51.745605,8.0146425,-0.142468262,17.060852,11.6952516
4.70922E+12,0.71403503,0.6791229,8.175766,-0.005462647,0.072906494,-0.14440918,17.289734,11.657715,-51.745605,8.0467225,-0.138775636,17.137146,11.6827394
4.70922E+12,0.6782379,0.7033386,8.195663,-0.014648438,0.07899475,-0.14840698,17.289734,11.657715,-51.745605,8.0986023,-0.139797974,17.21344,11.6702272
4.70923E+12,0.65615845,0.73194885,8.093506,-0.01701355,0.090286255,-0.15013123,17.289734,13.160706,-52.33307,8.1283417,-0.143066408,17.289734,11.9583132
4.70923E+12,0.6569061,0.75457764,7.899948,-0.01701355,0.10342407,-0.14953613,17.289734,13.160706,-52.33307,8.0982544,-0.146203614,17.289734,12.2589114
4.70924E+12,0.6438751,0.75083923,7.654297,-0.01701355,0.11819458,-0.14500427,17.289734,13.160706,-52.33307,8.003836,-0.147497558,17.289734,12.5595096
4.70924E+12,0.646225,0.75201416,7.49144,-0.019454956,0.13407898,-0.1390686,17.289734,13.160706,-52.33307,7.8669708,-0.146429442,17.289734,12.8601078
4.70925E+12,0.6783905,0.7915497,7.546463,-0.02659607,0.14802551,-0.13323975,16.835022,12.615967,-51.086426,7.7371308,-0.143395996,17.1987916,13.0517582
4.70925E+12,0.73306274,0.84313965,7.7212677,-0.03465271,0.15814209,-0.12786865,16.835022,12.615967,-51.086426,7.66268314,-0.13894348,17.1078492,12.9428104
4.70926E+12,0.7202606,0.8879852,7.7170105,-0.036636353,0.16261292,-0.12133789,16.835022,12.615967,-51.086426,7.62609564,-0.133303832,17.0169068,12.8338626
