timestamp,accel_x,accel_y,accel_z,gyro_x,gyro_y,gyro_z,mag_x,mag_y,mag_z,s_accel_x,s_accel_y,s_accel_z,s_gyro_x,s_gyro_y,s_gyro_z,s_mag_x,s_mag_y,s_mag_z
8.05392E+12,-0.8831787,1.5082397,9.011398,-0.40220642,0.077041626,-0.19204712,,,,-0.8831787,1.5082397,9.011398,-0.40220642,0.077041626,-0.19204712,0,0,0
8.05393E+12,-0.8596344,1.4969177,9.453842,0,0,0,0,0,0,-0.871405,1.5025787,9.23262,-0.20110321,0.38520813,-0.09602356,0,0,0
8.05393E+12,-0.83891296,1.5108337,9.847977,-0.39190674,-0.110809326,-0.12762451,0,0,0,-0.860575353,1.505330367,9.437739,-0.264704387,-0.0112559,-0.10655721,0,0,0
8.05394E+12,-0.7720337,1.5320892,10.237396,-0.3499756,-0.206604,-0.09901428,0,0,0,-0.83843994,1.512020075,9.63765325,-0.28602219,-0.060092925,-0.104671478,0,0,0
8.05394E+12,-0.6839752,1.5334015,10.469177,-0.28562927,-0.30274963,-0.07376099,0,0,0,-0.807546992,1.51629636,9.803958,-0.285943606,-0.108624266,-0.09848938,0,0,0
8.05395E+12,-0.5698395,1.5628967,10.542496,-0.20578003,-0.3798523,-0.051254272,17.042542,-22.981262,-46.696472,-0.744879152,1.52722776,10.1101776,-0.246658328,-0.200003051,-0.07033081,17.042542,-22.981262,-46.696472
8.05395E+12,-0.4427948,1.6008148,10.506271,-0.12515259,-0.4249115,-0.030838013,17.042542,-22.981262,-46.696472,-0.661511232,1.54800718,10.3206634,-0.271688846,-0.284985351,-0.076498413,17.042542,-22.981262,-46.696472
8.05396E+12,-0.29522705,1.6530457,10.525314,-0.05317688,-0.44158936,-0.01576233,17.042542,-22.981262,-46.696472,-0.55277405,1.57644958,10.4561308,-0.203942874,-0.351141358,-0.054125977,17.042542,-22.981262,-46.696472
8.05396E+12,-0.20280457,1.7217102,10.41246,1.53E-05,-0.43232727,-0.007354736,17.042542,-22.981262,-46.696472,-0.438928224,1.61437378,10.4911436,-0.133944702,-0.396286012,-0.035794068,17.042542,-22.981262,-46.696472
8.05397E+12,-0.18074036,1.7626495,10.265701,0.0332489,-0.39883423,-0.004882813,17.385864,-22.398376,-47.373962,-0.338281256,1.66022338,10.4504484,-0.070169068,-0.415502932,-0.022018433,17.1112064,-22.8646848,-46.83197
8.05397E+12,-0.17501831,1.758728,10.013504,0.051971436,-0.3382721,-0.007019043,17.385864,-22.398376,-47.373962,-0.259317018,1.69938964,10.34465,-0.018618775,-0.407186892,-0.013171387,17.1798708,-22.7481076,-46.967468
8.05398E+12,-0.22473145,1.7465363,9.848373,0.04899597,-0.2582245,-0.010345459,17.385864,-22.398376,-47.373962,-0.215704348,1.72853394,10.2130704,0.016210937,-0.373849492,-0.009072876,17.2485352,-22.6315304,-47.102966
8.05398E+12,-0.2800598,1.7424469,9.723907,0.02810669,-0.16807556,-0.012741089,17.385864,-22.398376,-47.373962,-0.212670898,1.74641418,10.052789,0.032467651,-0.319146732,-0.008468628,17.3171996,-22.5149532,-47.238464
8.05399E+12,-0.33137512,1.7545166,9.666809,-0.010513306,-0.07249451,-0.014938355,17.61322,-22.398376,-47.595215,-0.238385008,1.75297546,9.9036588,0.030361938,-0.24718018,-0.009985352,17.4313352,-22.398376,-47.4182126
8.05399E+12,-0.36558533,1.7702332,9.627258,-0.055603027,0.018676758,-0.016174316,17.61322,-22.398376,-47.595215,-0.275354002,1.7544922,9.7759702,0.012591553,-0.163677982,-0.012243652,17.4768064,-22.398376,-47.4624632
8.054E+12,-0.42549133,1.7578278,9.65741,-0.09609985,0.094192505,-0.014541626,17.61322,-22.398376,-47.595215,-0.325448606,1.75431216,9.7047514,-0.017022705,-0.077185061,-0.013748169,17.5222776,-22.398376,-47.5067138
8.054E+12,-0.4374237,1.8215485,9.710388,-0.1352539,0.16459656,-0.013214111,17.61322,-22.398376,-47.595215,-0.367987056,1.7693146,9.6771544,-0.053872679,0.007379151,-0.014321899,17.5677488,-22.398376,-47.5509644
8.05401E+12,-0.42860413,1.8254089,9.697159,-0.1605072,0.21446228,-0.01008606,17.738342,-21.520996,-47.473145,-0.397695922,1.785907,9.6718048,-0.091595457,0.083886719,-0.013790894,17.6382444,-22.2229,-47.570801
8.05401E+12,-0.4001007,1.7736816,9.656677,-0.17114258,0.2429657,-0.005767822,17.738342,-21.520996,-47.473145,-0.411441038,1.78974,9.6697784,-0.123721311,0.146978761,-0.011956787,17.6632688,-22.047424,-47.546387
8.05402E+12,-0.41374207,1.7349701,9.5243225,-0.16722107,0.25224304,-0.00352478,17.738342,-21.520996,-47.473145,-0.421072386,1.78268738,9.6491913,-0.14604492,0.193692017,-0.00942688,17.6882932,-21.871948,-47.521973
8.05402E+12,-0.39105225,1.7372437,9.447128,-0.16722107,0.25224304,-0.00352478,17.738342,-21.520996,-47.473145,-0.41418457,1.77857056,9.6071349,-0.160269164,0.225302124,-0.007223511,17.7133176,-21.696472,-47.497559
8.05403E+12,-0.35739136,1.77388,9.475662,-0.1326294,0.23054504,0.00378418,16.896057,-21.57898,-47.055054,-0.398178102,1.76903686,9.5601897,-0.159744264,0.23849182,-0.003823853,17.569885,-21.5325928,-47.3895268
8.05403E+12,-0.29377747,1.8266754,9.355621,-0.10903931,0.20117188,0.008514404,16.896057,-21.57898,-47.055054,-0.37121277,1.76929016,9.4918821,-0.149450686,0.23583374,-0.00010376,17.401428,-21.5441896,-47.3059086
8.05404E+12,-0.30464172,1.8654785,9.150391,-0.08392334,0.16690063,0.012863159,16.896057,-21.57898,-47.055054,-0.352120974,1.78764954,9.3906249,-0.132006838,0.220620726,0.003622436,17.232971,-21.5557864,-47.2222904
8.05404E+12,-0.28115845,1.8531647,9.071808,-0.057876587,0.12583923,0.01701355,16.583252,-21.711731,-46.925354,-0.32560425,1.81128846,9.300122,-0.110137941,0.195339964,0.007730102,17.001953,-21.5939334,-47.1127322
8.05405E+12,-0.245224,1.9297333,8.981522,-0.034225464,0.0793457,0.01878357,16.583252,-21.711731,-46.925354,-0.2964386,1.84978638,9.2070008,-0.08353882,0.160760496,0.012191773,16.770935,-21.6320804,-47.003174
8.05405E+12,-0.19859314,1.9507294,8.752197,-0.014633179,0.02961731,0.017715454,16.583252,-21.711731,-46.925354,-0.264678956,1.88515626,9.0623078,-0.059939576,0.12057495,0.014978027,16.708374,-21.6586306,-46.977234
8.05406E+12,-0.16789246,2.0205994,8.614548,-0.002105713,-0.019241333,0.016098022,16.583252,-21.711731,-46.925354,-0.239501954,1.92394106,8.9140932,-0.038552857,0.076492307,0.016494751,16.645813,-21.6851808,-46.951294
8.05406E+12,-0.17100525,2.014267,8.6094055,0.003509522,-0.07763672,0.008468628,16.583252,-21.711731,-47.192383,-0.21277466,1.95369876,8.8058961,-0.021066284,0.027584837,0.015615845,16.583252,-21.711731,-46.9787598
8.05407E+12,-0.19384766,2.0135956,8.657455,0.006698608,-0.13664246,-0.001373291,16.583252,-21.711731,-47.192383,-0.195312502,1.98578494,8.7230255,-0.008151245,-0.024911501,0.011938477,16.583252,-21.711731,-47.0321656
8.05407E+12,-0.18836975,1.9554901,8.725494,0.00428772,-0.19024658,-0.011749268,16.583252,-21.711731,-47.192383,-0.183941652,1.9909363,8.6718199,-0.000448608,-0.078829957,0.005831909,16.583252,-21.711731,-47.0855714
8.05408E+12,-0.20347595,1.8810883,8.865036,-0.002822876,-0.23808289,-0.023727417,16.583252,-21.711731,-47.192383,-0.184918214,1.97700808,8.6943877,0.001913452,-0.132369997,-0.002456665,16.583252,-21.711731,-47.1389772
8.05408E+12,-0.2722168,1.8397522,9.066559,-0.011077881,-0.27781677,-0.034057617,15.892029,-21.298218,-46.855164,-0.205783082,1.94083864,8.7847899,0.000119019,-0.184085084,-0.012487793,16.4450074,-21.6290284,-47.1249392
8.05409E+12,-0.30439758,1.8084259,9.238464,-0.018676758,-0.3115387,-0.03981018,15.892029,-21.298218,-46.855164,-0.232461548,1.89967042,8.9106016,-0.004318237,-0.23086548,-0.022143555,16.3067628,-21.5463258,-47.0574954
8.05409E+12,-0.29795837,1.7694092,9.418564,-0.02619934,-0.33700562,-0.04411316,15.892029,-21.298218,-46.855164,-0.25328369,1.85083314,9.0628234,-0.010897827,-0.270938112,-0.030691528,16.1685182,-21.4636232,-46.9900516
8.0541E+12,-0.30342102,1.7147522,9.544174,-0.03024292,-0.35131836,-0.045837402,15.892029,-21.298218,-46.855164,-0.276293944,1.80268556,9.2265594,-0.017803955,-0.303152468,-0.037509155,16.0302736,-21.3809206,-46.9226078
8.0541E+12,-0.2843933,1.6171722,9.716888,-0.034057617,-0.35295105,-0.04475403,15.725708,-21.195984,-46.757507,-0.292477414,1.74990234,9.3969298,-0.024050903,-0.3261261,-0.041714478,15.8587648,-21.2777712,-46.8356326
8.05411E+12,-0.2501068,1.5673065,9.974304,-0.03515625,-0.34243774,-0.042770386,15.725708,-21.195984,-46.757507,-0.288055414,1.6954132,9.5784788,-0.028866577,-0.339050294,-0.043457032,15.8255006,-21.2573244,-46.8161012
8.05411E+12,-0.2136383,1.5428925,10.178711,-0.034500122,-0.32395935,-0.03831482,15.725708,-21.195984,-46.757507,-0.269903558,1.64230652,9.7665282,-0.03203125,-0.341534424,-0.04315796,15.7922364,-21.2368776,-46.7965698
8.05412E+12,-0.21873474,1.5780487,10.270828,-0.02734375,-0.29830933,-0.03186035,15.725708,-21.195984,-46.757507,-0.254058832,1.60403442,9.936981,-0.032260132,-0.333795166,-0.040707398,15.7589722,-21.2164308,-46.7770384
8.05412E+12,-0.23078918,1.6338043,10.272614,-0.011077881,-0.2642975,-0.024490356,15.725708,-22.691345,-47.340393,-0.239532464,1.58784484,10.082669,-0.028427124,-0.316390994,-0.036437988,15.725708,-21.4950562,-46.8740842
8.05413E+12,-0.28147888,1.6585846,10.164749,0.008056641,-0.2260437,-0.01789856,15.725708,-22.691345,-47.340393,-0.23894958,1.59612732,10.1722412,-0.020004272,-0.291009524,-0.031066894,15.725708,-21.7941284,-46.9906614
8.05413E+12,-0.33702087,1.7376709,9.95369,0.027145386,-0.18345642,-0.013565064,15.725708,-22.691345,-47.340393,-0.256332394,1.6302002,10.1681184,-0.007543945,-0.25921326,-0.02522583,15.725708,-22.0932006,-47.1072386
8.05414E+12,-0.35087585,1.7910919,9.7747345,0.042785645,-0.14038086,-0.010299683,15.725708,-22.691345,-47.340393,-0.283779904,1.67984008,10.0873231,0.007913208,-0.222497562,-0.019622803,15.725708,-22.3922728,-47.2238158
8.05414E+12,-0.38580322,1.8371735,9.676514,0.05142212,-0.10173035,-0.006576538,14.97345,-21.862793,-48.161316,-0.3171936,1.73166504,9.9684603,0.023666382,-0.183181766,-0.01456604,15.5752564,-22.5256346,-47.5045776
8.05415E+12,-0.43901062,1.8662262,9.70285,0.052139282,-0.06854248,-0.004577637,14.97345,-21.862793,-48.161316,-0.358837888,1.77814942,9.8545075,0.036309815,-0.144030762,-0.010583496,15.4248048,-22.3599242,-47.6687622
8.05415E+12,-0.42404175,1.8497772,9.646408,0.047424316,-0.04447937,-0.00390625,14.97345,-21.862793,-48.161316,-0.387350462,1.81638794,9.7508393,0.04418335,-0.107717896,-0.007785034,15.2743532,-22.1942138,-47.8329468
8.05416E+12,-0.37701416,1.838913,9.595093,0.04333496,-0.024810791,-0.001449585,14.97345,-21.862793,-48.161316,-0.39534912,1.83663636,9.6791199,0.047421265,-0.07598877,-0.005361939,15.1239016,-22.0285034,-47.9971314
8.05416E+12,-0.3697815,1.8063965,9.6089325,0.038650513,-0.00730896,0.004638672,14.866638,-21.711731,-48.2666,-0.39913025,1.83969728,9.6459595,0.046594238,-0.04937439,-0.002374268,14.9520876,-21.8325806,-48.1823728
8.05417E+12,-0.32806396,1.8422699,9.603165,0.032470703,0.006164551,0.010101318,14.866638,-21.711731,-48.2666,-0.387582398,1.84071656,9.6312897,0.042803955,-0.02779541,0.000961304,14.9307252,-21.8023682,-48.2034296
8.05417E+12,-0.3350067,1.8699341,9.469666,0.027618408,0.014099121,0.013565064,14.866638,-21.711731,-48.2666,-0.366781614,1.84145814,9.5846529,0.03789978,-0.01126709,0.004589844,14.9093628,-21.7721558,-48.2244864
8.05418E+12,-0.37963867,1.8527069,9.337479,0.023880005,0.020080566,0.016174316,14.866638,-21.711731,-48.2666,-0.357900998,1.84204408,9.5228671,0.033190918,0.001644897,0.008605957,14.8880004,-21.7419434,-48.2455432
8.05418E+12,-0.36976624,1.8765869,9.24408,0.019744873,0.024047852,0.020812988,16.15448,-21.711731,-47.950745,-0.356451414,1.84957886,9.4526645,0.0284729,0.011416626,0.013058472,15.1242064,-21.711731,-48.203429
8.05419E+12,-0.31437683,1.9460297,9.089706,0.011169434,0.026504517,0.023803711,16.15448,-21.711731,-47.950745,-0.34537048,1.8775055,9.3488192,0.022976685,0.018179321,0.016891479,15.3817748,-21.711731,-48.140258
8.05419E+12,-0.24905396,2.0279388,9.0346985,-3.51E-04,0.028686523,0.029418945,16.15448,-21.711731,-47.950745,-0.32956848,1.91463928,9.2351259,0.016412354,0.022683716,0.020755005,15.6393432,-21.711731,-48.077087
8.0542E+12,-0.14979553,2.1300964,8.990784,-0.016799927,0.02734375,0.035095215,16.15448,-21.711731,-47.950745,-0.292526246,1.96667174,9.1393495,0.007528687,0.025332642,0.025061035,15.8969116,-21.711731,-48.013916
8.0542E+12,-0.0786438,2.2053528,8.877228,-0.035751343,0.016036987,0.036010742,15.591431,-20.741272,-46.665955,-0.232327272,2.03720092,9.0472993,-0.004397583,0.024523926,0.02902832,16.0418702,-21.5176392,-47.693787
8.05421E+12,-0.034805298,2.2584229,8.775391,-0.054840088,-0.002624512,0.030471802,15.591431,-20.741272,-46.665955,-0.165335084,2.11356812,8.9535615,-0.019314575,0.019189453,0.030960083,15.9292604,-21.3235474,-47.436829
8.05421E+12,-0.015365601,2.2700043,8.807785,-0.07157898,-0.027191162,0.014221191,15.591431,-20.741272,-46.665955,-0.105532838,2.17836304,8.8971773,-0.035864258,0.008450317,0.029043579,15.8166506,-21.1294556,-47.179871
8.05422E+12,-0.061325073,2.180603,8.98201,-0.08404541,-0.060287476,-0.001312256,15.591431,-20.741272,-46.665955,-0.06798706,2.20889588,8.8866396,-0.05260315,-0.009344483,0.022897339,15.7040408,-20.9353638,-46.922913
8.05422E+12,-0.12445068,2.114975,9.205582,-0.0990448,-0.0970459,-0.017562866,15.553284,-20.681763,-46.591187,-0.06291809,2.2058716,8.9295992,-0.069052124,-0.034222413,0.012365723,15.5838016,-20.7293702,-46.6510014
8.05423E+12,-0.042297363,2.053955,9.437912,-0.10820007,-0.13760376,-0.03303528,15.553284,-20.681763,-46.591187,-0.055648803,2.17559204,9.041736,-0.08354187,-0.064950562,-0.001443482,15.5761722,-20.7174684,-46.6360478
8.05423E+12,-0.080322266,1.946228,9.682678,-0.10644531,-0.16921997,-0.044281006,15.553284,-20.681763,-46.591187,-0.064752197,2.11315306,9.2231934,-0.093862914,-0.098269654,-0.016394043,15.5685428,-20.7055666,-46.6210942
8.05424E+12,-0.06037903,1.9129639,9.702759,-0.097457886,-0.1920929,-0.054885864,15.553284,-20.681763,-46.591187,-0.073754882,2.04174498,9.4021882,-0.099038695,-0.131250001,-0.030215454,15.5609134,-20.6936648,-46.6061406
8.05424E+12,-0.1355133,1.8493652,9.796188,-0.082229614,-0.19714355,-0.061416626,15.553284,-20.681763,-46.591187,-0.088592528,1.97549742,9.5650238,-0.098675536,-0.158621216,-0.042236328,15.553284,-20.681763,-46.591187
8.05425E+12,-0.13490295,1.8501434,9.962784,-0.0690918,-0.19241333,-0.06666565,15.553284,-20.681763,-46.591187,-0.090682982,1.9225311,9.7164642,-0.092684936,-0.177694702,-0.052056885,15.553284,-20.681763,-46.591187
8.05425E+12,-0.13000488,1.8286438,10.068924,-0.056137085,-0.18197632,-0.0687561,15.553284,-20.681763,-46.591187,-0.108224485,1.87746886,9.8426666,-0.082272339,-0.186569214,-0.059201049,15.553284,-20.681763,-46.591187
8.05426E+12,-0.14247131,1.7689819,10.16069,-0.043945313,-0.16395569,-0.06941223,16.900635,-23.068237,-46.59424,-0.120654294,1.84201964,9.938269,-0.06977234,-0.185516358,-0.064227294,15.8227542,-21.1590578,-46.5917976
8.05426E+12,-0.092666626,1.7345581,10.046112,-0.029464722,-0.14022827,-0.06617737,16.900635,-23.068237,-46.59424,-0.127111813,1.80633848,10.0069396,-0.056173707,-0.175143432,-0.066485595,16.0922244,-21.6363526,-46.5924082
8.05427E+12,-0.079330444,1.7047272,9.866379,-0.009155273,-0.108169556,-0.059280396,16.900635,-23.068237,-46.59424,-0.115875242,1.77741088,10.0209778,-0.041558839,-0.157348633,-0.066058349,16.3616946,-22.1136474,-46.5930188
8.05427E+12,-0.16062927,1.6940155,9.75386,0.010971069,-0.07733154,-0.054031372,16.900635,-23.068237,-46.59424,-0.121020506,1.7461853,9.979193,-0.025546265,-0.134332275,-0.063531494,16.6311648,-22.5909422,-46.5936294
8.05428E+12,-0.25274658,1.6937561,9.688126,0.027435303,-0.050598145,-0.0496521,14.523315,-21.368408,-46.925354,-0.145568846,1.71920776,9.9030334,-0.008831787,-0.10805664,-0.059710694,16.425171,-22.7282712,-46.6604628
8.05428E+12,-0.27752686,1.7293091,9.6471405,0.038757324,-0.028671265,-0.044799805,14.523315,-21.368408,-46.925354,-0.172579956,1.7112732,9.8003235,0.00770874,-0.080999755,-0.054788209,15.949707,-22.3883054,-46.7266856
8.05429E+12,-0.22961426,1.7453003,9.576248,0.047332764,-0.016189575,-0.037384033,14.523315,-21.368408,-46.925354,-0.199969483,1.71342164,9.7063507,0.023068237,-0.056192016,-0.049029541,15.474243,-22.0483396,-46.7929084
8.05429E+12,-0.13319397,1.8793793,9.444229,0.055664063,-0.009338379,-0.026748657,14.523315,-21.368408,-46.925354,-0.210742188,1.74835206,9.6219207,0.036032105,-0.036425781,-0.042523193,14.998779,-21.7083738,-46.8591312
8.0543E+12,0.021591187,1.9905396,9.424881,0.06309509,-0.003509522,-0.014587402,14.637756,-21.408081,-46.905518,-0.174298097,1.80765688,9.5561249,0.046456909,-0.021661377,-0.034634399,14.5462032,-21.3763426,-46.9213868
8.0543E+12,0.122406006,2.0864716,9.400543,0.062927246,0.001953125,-0.008789063,14.637756,-21.408081,-46.905518,-0.099267579,1.88619998,9.4986083,0.053555297,-0.011151123,-0.026461792,14.5690914,-21.3842772,-46.9174196
8.05431E+12,0.13041687,2.0836182,9.369385,0.055648804,0.008514404,-0.014968872,14.637756,-21.408081,-46.905518,-0.017678833,1.9570618,9.4430572,0.056933593,-0.003713989,-0.020495605,14.5919796,-21.3922118,-46.9134524
8.05431E+12,0.15635681,2.0687256,9.314835,0.04397583,0.020309448,-0.028503418,14.637756,-21.408081,-46.905518,0.059515381,2.02174686,9.3907746,0.056262207,0.003585815,-0.018719482,14.6148678,-21.4001464,-46.9094852
8.05432E+12,0.21647644,2.0329285,9.282852,0.030059814,0.039611816,-0.04446411,16.490173,-21.98944,-46.707153,0.129449463,2.0524567,9.3584992,0.051141357,0.013375854,-0.022262573,15.0082394,-21.5243528,-46.865845
8.05432E+12,0.18736267,1.9526825,9.277405,0.012481689,0.06430054,-0.05973816,16.490173,-21.98944,-46.707153,0.162603759,2.04488528,9.329004,0.041018677,0.026937867,-0.031292725,15.3787228,-21.6406246,-46.826172
8.05433E+12,0.10273743,1.8886566,9.188004,-0.010238647,0.09529114,-0.074661255,16.490173,-21.98944,-46.707153,0.158670044,2.00532228,9.2864962,0.026385498,0.04560547,-0.044467163,15.7492062,-21.7568964,-46.786499
8.05433E+12,0.08988953,1.8632813,9.153198,-0.03363037,0.13092041,-0.087387085,16.490173,-21.98944,-46.707153,0.150564576,1.9612549,9.2432588,0.008529663,0.070086671,-0.058950806,16.1196896,-21.8731682,-46.746826
8.05434E+12,0.04159546,1.8730316,9.291534,-0.055664063,0.16726685,-0.09680176,15.382385,-21.195984,-48.098755,0.127612306,1.9221161,9.2385986,-0.011398315,0.099478151,-0.072610474,16.2686154,-21.8307488,-46.9854734
8.05434E+12,0.004928589,1.8545074,9.523788,-0.07376099,0.19526672,-0.10231018,15.382385,-21.195984,-48.098755,0.085302736,1.88643188,9.2867858,-0.032162476,0.130609132,-0.084179688,16.0470578,-21.6720576,-47.2637938
8.05435E+12,0.007354736,1.7949524,9.715958,-0.08380127,0.2131958,-0.10494995,15.382385,-21.195984,-48.098755,0.049301149,1.85488586,9.3744964,-0.051419068,0.160388184,-0.093222046,15.8255002,-21.5133664,-47.5421142
8.05435E+12,0.016479492,1.7529755,9.755814,-0.07727051,0.22846985,-0.10494995,15.382385,-21.195984,-48.098755,0.032049561,1.82774964,9.4880584,-0.064825441,0.187023926,-0.099279785,15.6039426,-21.3546752,-47.8204346
8.05436E+12,0.02015686,1.738327,9.678421,-0.04815674,0.24668884,-0.10269165,15.42511,-21.282959,-48.18268,0.018103027,1.80275878,9.593103,-0.067730715,0.210177612,-0.102340698,15.39093,-21.213379,-48.11554
8.05436E+12,-0.03515625,1.7252197,9.565491,-0.005203247,0.26148987,-0.09794617,15.42511,-21.282959,-48.18268,0.002752685,1.7731964,9.6478944,-0.057638551,0.229022216,-0.10256958,15.399475,-21.230774,-48.132325
8.05437E+12,-0.13282776,1.7100067,9.41304,0.043670654,0.26953125,-0.09272766,15.42511,-21.282959,-48.18268,-0.024798584,1.74429626,9.6257448,-0.034152223,0.243875122,-0.100653076,15.40802,-21.248169,-48.14911
8.05437E+12,-0.19519043,1.6937561,9.151871,0.09390259,0.27088928,-0.08493042,15.42511,-21.282959,-48.18268,-0.065307618,1.724057,9.5129274,0.001388549,0.255413818,-0.09664917,15.416565,-21.265564,-48.165895
8.05438E+12,-0.18681335,1.7028961,8.844986,0.13787842,0.27182007,-0.07293701,15.675354,-21.533203,-48.52295,-0.105966186,1.71404112,9.3307618,0.044418335,0.264083862,-0.090246582,15.4751588,-21.3330078,-48.250734
8.05439E+12,-0.1499176,1.7246704,8.568253,0.17248535,0.2740326,-0.055725098,15.675354,-21.533203,-48.52295,-0.139981078,1.7113098,9.1087282,0.088546753,0.269552614,-0.080853272,15.5252076,-21.3830566,-48.318788
8.05439E+12,-0.07733154,1.8560791,8.389648,0.19197083,0.27478027,-0.035003662,15.675354,-21.533203,-48.52295,-0.148416136,1.73748168,8.8735596,0.127981569,0.272210694,-0.06826477,15.5752564,-21.4331054,-48.386842
8.0544E+12,-0.040161133,1.9647064,8.2543335,0.19677734,0.27241516,-0.013442993,15.675354,-21.533203,-48.52295,-0.129882811,1.78842162,8.6418183,0.158602906,0.272787476,-0.052407837,15.6253052,-21.4831542,-48.454896
8.0544E+12,-0.11192322,2.1059723,8.264175,0.19058228,0.26104736,0.003555298,15.382385,-19.47937,-47.0932,-0.113229369,1.87086486,8.4642791,0.177938844,0.270819092,-0.034710693,15.6167602,-21.1224364,-48.237
8.05441E+12,-0.15803528,2.164505,8.298691,0.17848206,0.24012756,0.018051147,15.382385,-19.47937,-47.0932,-0.107473755,1.96318664,8.3550201,0.186059572,0.26448059,-0.016513062,15.5581664,-20.7116698,-47.95105
8.05441E+12,-0.24958801,2.199997,8.368362,0.1669159,0.21211243,0.028244019,15.382385,-19.47937,-47.0932,-0.127407837,2.05825196,8.3150419,0.184945682,0.252096556,0.000280762,15.4995726,-20.3009032,-47.6651
8.05442E+12,-0.28704834,2.3865356,8.6480255,0.15267944,0.17218018,0.039352417,15.382385,-19.47937,-47.0932,-0.169351197,2.16434326,8.3667174,0.177087404,0.231576538,0.015151978,15.4409788,-19.8901366,-47.37915
8.05442E+12,-0.07136536,2.6307526,8.754959,0.14006042,0.12930298,0.049545288,15.615845,-19.98291,-46.99402,-0.175592042,2.2975525,8.4668425,0.16574402,0.202954102,0.027749634,15.429077,-19.580078,-47.073364
8.05443E+12,0.18127441,2.7631836,8.552612,0.13270569,0.10064697,0.061264038,15.615845,-19.98291,-46.99402,-0.116952516,2.42899476,8.5245299,0.154168702,0.170874024,0.039291382,15.475769,-19.680786,-47.053528
8.05443E+12,0.36480713,2.8802032,8.35939,0.12998962,0.09555054,0.07131958,15.615845,-19.98291,-46.99402,-0.012384034,2.5721344,8.5366697,0.144470214,0.14195862,0.049945068,15.522461,-19.781494,-47.033692
8.05444E+12,0.46229553,2.9061584,8.39061,0.121917725,0.105148315,0.070373535,15.615845,-19.98291,-46.99402,0.129992674,2.71336668,8.5411193,0.135470579,0.120565797,0.058370972,15.569153,-19.882202,-47.013856
8.05444E+12,0.529068,2.979782,8.5327,0.10151672,0.10601807,0.062683105,16.508484,-21.835327,-46.446228,0.293215942,2.83201596,8.5180542,0.125238035,0.107333375,0.063037109,15.7943728,-20.3533934,-46.8844616
8.05445E+12,0.5686035,3.081009,8.734894,0.07092285,0.095687866,0.04307556,16.508484,-21.835327,-46.446228,0.421209714,2.92206724,8.5140412,0.111410521,0.100610352,0.061743164,15.9729006,-20.7238768,-46.7749032
8.05445E+12,0.47990417,3.093216,8.723099,0.047805786,0.09005737,0.01499939,16.508484,-21.835327,-46.446228,0.480935666,2.98807372,8.5481386,0.09443054,0.098492432,0.052490234,16.1514284,-21.0943602,-46.6653448
8.05446E+12,0.38786316,3.0156403,8.724747,0.025878906,0.09768677,-0.015563965,16.23993,-21.025085,-45.9198,0.485546872,3.01516114,8.62121,0.073608397,0.098919678,0.035113525,16.2762454,-21.3027952,-46.4505008
8.05446E+12,0.2516327,2.8913116,8.703125,0.002822876,0.11653137,-0.041763306,16.23993,-21.025085,-45.9198,0.443414306,3.01219178,8.683713,0.049789428,0.101196289,0.012686157,16.4010624,-21.5112302,-46.2356568
8.05447E+12,0.15890503,2.8439636,8.649063,-0.02230835,0.14147949,-0.06518555,16.23993,-21.025085,-45.9198,0.369381712,2.9850281,8.7069856,0.025024414,0.108288573,-0.012887574,16.3473516,-21.3491818,-46.1303712
8.05447E+12,0.046875,2.8140259,8.616455,-0.04664612,0.16273499,-0.07829285,16.23993,-21.025085,-45.9198,0.265036012,2.93163148,8.6832978,0.00151062,0.121697998,-0.037161256,16.2936408,-21.1871334,-46.0250856
8.05448E+12,0.011444092,2.8695526,8.620712,-0.07435608,0.1794281,-0.08276367,16.511536,-21.025085,-46.0968,0.171343996,2.8868988,8.6628204,-0.022921754,0.139572144,-0.056713868,16.2942512,-21.025085,-45.9552
8.05448E+12,-0.03590393,2.9330292,8.619247,-0.095703125,0.18515015,-0.08439636,16.511536,-21.025085,-46.0968,0.086590578,2.87037658,8.6417204,-0.04723816,0.15706482,-0.070480347,16.3485724,-21.025085,-45.9906
8.05449E+12,6.71E-04,2.98143,8.584702,-0.112213135,0.17567444,-0.08255005,16.511536,-21.025085,-46.0968,0.036398316,2.88840026,8.6180358,-0.070245362,0.168893434,-0.078637696,16.4028936,-21.025085,-46.026
8.05449E+12,0.07936096,3.079773,8.450531,-0.12272644,0.15310669,-0.083099365,16.511536,-21.025085,-46.0968,0.020489502,2.93556214,8.5783294,-0.09032898,0.171218874,-0.082220459,16.4572148,-21.025085,-46.0614
8.0545E+12,0.18417358,3.1444244,8.399948,-0.13174438,0.11288452,-0.087127686,17.463684,-21.025085,-46.684265,0.047949218,3.00164184,8.535028,-0.107348632,0.16124878,-0.083987426,16.7019656,-21.025085,-46.214293
8.0545E+12,0.29640198,3.2249756,8.353348,-0.14312744,0.056930542,-0.09487915,17.463684,-21.025085,-46.684265,0.104940795,3.07272644,8.4815552,-0.121102904,0.136749268,-0.086410522,16.8923952,-21.025085,-46.331786
8.05451E+12,0.38046265,3.261444,8.454239,-0.16365051,-0.019638062,-0.10787964,17.463684,-21.025085,-46.684265,0.188214111,3.1384094,8.4485536,-0.134692381,0.095791626,-0.091107178,17.0828248,-21.025085,-46.449279
8.05451E+12,0.4723816,3.2399292,8.543091,-0.19024658,-0.09635925,-0.12515259,17.463684,-21.025085,-46.684265,0.282556154,3.19010924,8.4402314,-0.15029907,0.041384888,-0.099627686,17.2732544,-21.025085,-46.566772
8.05452E+12,0.5157471,3.2222748,8.711868,-0.22294617,-0.16859436,-0.14538574,17.956543,-21.025085,-46.925354,0.369833382,3.2186096,8.4924988,-0.170343016,-0.022955322,-0.112084961,17.5622558,-21.025085,-46.7324828
8.05452E+12,0.5495148,3.1826935,8.915329,-0.26226807,-0.23173523,-0.1676178,17.956543,-21.025085,-46.925354,0.442901626,3.22626342,8.595575,-0.196447754,-0.091879272,-0.128182984,17.6608276,-21.025085,-46.7807006
8.05453E+12,0.54255676,3.1248322,9.129318,-0.30282593,-0.2799225,-0.18969727,17.956543,-21.025085,-46.925354,0.492132582,3.20623474,8.750769,-0.228387452,-0.15924988,-0.147146608,17.7593994,-21.025085,-46.8289184
8.05453E+12,0.5216675,3.0814056,9.4075775,-0.34320068,-0.3177185,-0.21095276,17.956543,-21.025085,-46.925354,0.520373552,3.17022706,8.9414367,-0.264297486,-0.218865968,-0.167761232,17.8579712,-21.025085,-46.8771362
8.05454E+12,0.41244507,3.009674,9.741119,-0.384552,-0.34710693,-0.23320007,17.610168,-21.255493,-47.14966,0.508386246,3.12417602,9.1810423,-0.30315857,-0.269015504,-0.189370728,17.887268,-21.0711666,-46.9702152
8.05454E+12,0.27201843,2.9189453,10.084183,-0.41603088,-0.36653137,-0.25245667,17.610168,-21.255493,-47.14966,0.459640512,3.06351012,9.4555053,-0.341775512,-0.308602906,-0.210784914,17.817993,-21.1172482,-47.0150764
8.05455E+12,0.1269989,2.8046875,10.411194,-0.43754578,-0.3746338,-0.27053833,17.610168,-21.255493,-47.14966,0.375137332,2.98790892,9.7546783,-0.376831054,-0.33718262,-0.23136902,17.748718,-21.1633298,-47.0599376
8.05455E+12,-0.04925537,2.6524506,10.655533,-0.44544983,-0.36825562,-0.28553772,17.610168,-21.255493,-47.14966,0.256774906,2.8934326,10.0599213,-0.405355834,-0.354849244,-0.25053711,17.679443,-21.2094114,-47.1047988
8.05456E+12,-0.21131897,2.5006714,10.833466,-0.43673706,-0.35021973,-0.29284668,16.744995,-21.530151,-47.299194,0.110177612,2.77728576,10.345099,-0.42406311,-0.36134949,-0.266915894,17.4371334,-21.3104246,-47.1795668
8.05456E+12,-0.30012512,2.4448242,10.888092,-0.40979004,-0.3223114,-0.29153442,16.744995,-21.530151,-47.299194,-0.032336426,2.6643158,10.5744936,-0.429110718,-0.356390384,-0.278582764,17.2640988,-21.3653562,-47.2094736
8.05457E+12,-0.3209381,2.4071503,10.89447,-0.36375427,-0.2848053,-0.28074646,16.744995,-21.530151,-47.299194,-0.150927732,2.5619568,10.736551,-0.418655396,-0.34004517,-0.284240722,17.0910642,-21.4202878,-47.2393804
8.05457E+12,-0.26930237,2.4205322,10.770859,-0.307724,-0.24432373,-0.2625122,16.744995,-21.530151,-47.299194,-0.230187986,2.48512574,10.808484,-0.39269104,-0.313983156,-0.282635496,16.9180296,-21.4752194,-47.2692872
8.05458E+12,-0.19439697,2.4782257,10.51387,-0.24382019,-0.2052002,-0.23925781,16.412354,-21.195984,-46.757507,-0.259216306,2.45028076,10.7801514,-0.352365112,-0.281372072,-0.273379514,16.6784668,-21.4633176,-47.1908566
8.05458E+12,-0.058944702,2.5155334,10.142227,-0.17576599,-0.16926575,-0.21536255,16.412354,-21.195984,-46.757507,-0.228741452,2.45325316,10.6419036,-0.300170898,-0.245181276,-0.257882688,16.6119386,-21.3964842,-47.0825192
8.05459E+12,0.071014404,2.5944824,9.604416,-0.11079407,-0.13471985,-0.19412231,16.412354,-21.195984,-46.757507,-0.154513548,2.4831848,10.3851684,-0.240371704,-0.207662966,-0.238400266,16.5454104,-21.3296508,-46.9741818
8.05459E+12,0.12150574,2.6972198,8.99408,-0.048217773,-0.098480225,-0.17660522,16.412354,-21.195984,-46.757507,-0.06602478,2.5411987,10.0050904,-0.177264405,-0.170397951,-0.217572018,16.4788822,-21.2628174,-46.8658444
8.0546E+12,0.17703247,2.811264,8.378387,0.002212524,-0.06956482,-0.16622925,16.551208,-20.779419,-47.572327,0.023242188,2.61934506,9.526596,-0.1152771,-0.135446169,-0.198315428,16.4401248,-21.112671,-46.920471
8.0546E+12,0.21463013,2.9385223,7.917816,0.033477783,-0.055786133,-0.16003418,16.551208,-20.779419,-47.572327,0.105047608,2.71140438,9.0073852,-0.059817505,-0.105563356,-0.182470702,16.4678956,-21.029358,-47.083435
8.05461E+12,0.27911377,3.0641022,7.7473145,0.044906616,-0.055419922,-0.15609741,16.551208,-20.779419,-47.572327,0.172659303,2.82111814,8.5284027,-0.015682984,-0.08279419,-0.170617674,16.4956664,-20.946045,-47.246399
8.05461E+12,0.3301239,3.1182098,7.5855103,0.041763306,-0.06730652,-0.15203857,16.551208,-20.779419,-47.572327,0.224481202,2.92586362,8.12462156,0.014828491,-0.069311524,-0.162200926,16.5234372,-20.862732,-47.409363
8.05462E+12,0.3736267,3.206894,7.50589,0.028060913,-0.08477783,-0.15090942,16.394043,-20.239258,-48.135376,0.274905394,3.02779846,7.82698356,0.030084228,-0.066571045,-0.157061766,16.519775,-20.6713868,-47.6849368
8.05462E+12,0.3719635,3.2512665,7.509094,0.006759644,-0.1083374,-0.154953,16.394043,-20.239258,-48.135376,0.3138916,3.11579896,7.65312496,0.030993652,-0.074325561,-0.154806516,16.488342,-20.5633546,-47.7975466
8.05463E+12,0.3081665,3.2088165,7.4603424,-0.014663696,-0.13369751,-0.16479492,16.394043,-20.239258,-48.135376,0.332598874,3.1698578,7.56163024,0.021365357,-0.089907836,-0.155758664,16.456909,-20.4553224,-47.9101564
8.05463E+12,0.20620728,3.1725464,7.490082,-0.034576416,-0.16152954,-0.1775055,16.394043,-20.239258,-48.135376,0.318017576,3.19154664,7.51018374,0.00546875,-0.11112976,-0.160040282,16.425476,-20.3472902,-48.0227662
8.05464E+12,0.16557312,3.0637054,7.520111,-0.05429077,-0.18817139,-0.18882751,15.896606,-20.33844,-47.261047,0.28510742,3.18064576,7.49710388,-0.013742065,-0.135302734,-0.16739807,16.2945556,-20.2590944,-47.9605102
8.05464E+12,0.1164093,3.0171814,7.6284943,-0.074920654,-0.21070862,-0.19602966,15.896606,-20.33844,-47.261047,0.23366394,3.14270324,7.52162474,-0.034338378,-0.160488892,-0.176422118,16.1950682,-20.2789308,-47.7856444
8.05465E+12,0.052963257,2.932602,7.7407837,-0.09613037,-0.22669983,-0.19683838,15.896606,-20.33844,-47.261047,0.169863891,3.07897034,7.56796268,-0.054916381,-0.184161378,-0.184799194,16.0955808,-20.2987672,-47.6107786
8.05465E+12,-0.006164551,2.900406,7.9203033,-0.11936951,-0.23620605,-0.19293213,15.896606,-20.33844,-47.261047,0.106997681,3.01728824,7.65995486,-0.075857544,-0.204663086,-0.190426636,15.9960934,-20.3186036,-47.4359128
8.05466E+12,-0.04396057,2.813614,8.1772,-0.14039612,-0.23887634,-0.1855011,16.384888,-20.013428,-47.10083,0.056964111,2.94550176,7.79737846,-0.097021485,-0.220132446,-0.192025756,15.9942624,-20.2734376,-47.2290036
8.05466E+12,-0.06387329,2.7685547,8.448425,-0.15498352,-0.23898315,-0.17576599,16.384888,-20.013428,-47.10083,0.011074829,2.88647162,7.98304126,-0.117160035,-0.230294798,-0.189413452,16.0919188,-20.2084352,-47.1969602
8.05467E+12,-0.030456543,2.7341766,8.596313,-0.15963745,-0.24005127,-0.16281128,16.384888,-20.013428,-47.10083,-0.018298339,2.82987066,8.176605,-0.134103394,-0.236163328,-0.182769776,16.1895752,-20.1434328,-47.1649168
8.05467E+12,-0.003372192,2.6912994,8.743027,-0.15963745,-0.24005127,-0.16281128,16.384888,-20.013428,-47.10083,-0.029565429,2.78161014,8.37705366,-0.14680481,-0.238833616,-0.175964356,16.2872316,-20.0784304,-47.1328734
8.05468E+12,0.029251099,2.6669006,8.934616,-0.13269043,-0.2390747,-0.12705994,16.506958,-19.903564,-47.006226,-0.022482299,2.73490906,8.5799162,-0.149468994,-0.239407346,-0.162789918,16.409302,-19.9914552,-47.0819092
8.05468E+12,0.038406372,2.568985,9.048279,-0.1078949,-0.23750305,-0.10699463,16.506958,-19.903564,-47.006226,-0.006008911,2.68598326,8.754132,-0.14296875,-0.239132688,-0.147088624,16.433716,-19.9694824,-47.0629884
8.05469E+12,0.037109375,2.6150665,8.98436,-0.07873535,-0.22955322,-0.08534241,16.506958,-19.903564,-47.006226,0.014187622,2.65528562,8.861319,-0.127719116,-0.237246702,-0.129003908,16.45813,-19.9475096,-47.0440676
8.05469E+12,0.024383545,2.647049,8.811768,-0.05029297,-0.2157135,-0.06286621,16.06903,-20.166016,-47.0932,0.02515564,2.6378601,8.90441,-0.10585022,-0.232379148,-0.109014894,16.3949584,-19.9780272,-47.0425416
8.0547E+12,0.17344666,2.7745667,8.752914,-0.025527954,-0.1972351,-0.037826538,16.06903,-20.166016,-47.0932,0.06051941,2.65451356,8.9063874,-0.079028321,-0.223815914,-0.084017946,16.3317868,-20.0085448,-47.0410156
8.0547E+12,0.40359497,2.8796234,8.667831,-0.004806519,-0.18130493,-0.014465332,16.06903,-20.166016,-47.0932,0.135388184,2.69705812,8.8530304,-0.053451539,-0.21226196,-0.061499024,16.2442012,-20.0610352,-47.0584104
8.05471E+12,0.6097717,3.0944977,8.724976,0.009719849,-0.17514038,0.004058838,16.06903,-20.166016,-47.0932,0.24966125,2.80216066,8.7883698,-0.029928589,-0.199789426,-0.03928833,16.1566156,-20.1135256,-47.0758052
8.05471E+12,0.77490234,3.1865234,8.726212,0.027633667,-0.17958069,0.014007568,15.881348,-19.979858,-47.82257,0.397219843,2.91645204,8.7367402,-0.008654785,-0.18979492,-0.019418335,16.0314936,-20.1287844,-47.239074
8.05472E+12,0.8353729,3.2310486,8.674652,0.046966553,-0.1927185,0.014297485,15.881348,-19.979858,-47.82257,0.559417714,3.03325196,8.709317,0.010797119,-0.18519592,-0.003985596,15.9939572,-20.0915528,-47.384948
8.05472E+12,0.8892822,3.220932,8.520172,0.06855774,-0.20425415,0.00668335,15.881348,-19.979858,-47.82257,0.702584822,3.12252502,8.6627686,0.029614258,-0.18659973,0.004916382,15.9564208,-20.0543212,-47.530822
8.05473E+12,0.8359375,3.212387,8.301712,0.08811951,-0.20907593,-0.00479126,15.881348,-19.979858,-47.82257,0.789053328,3.18907774,8.5895448,0.048199464,-0.19215393,0.006851196,15.9188844,-20.0170896,-47.676696
8.05473E+12,0.81344604,3.1985626,8.146118,0.101882935,-0.20907593,-0.016784668,16.297913,-19.441223,-48.806763,0.829788196,3.20989072,8.4737732,0.066632081,-0.19894104,0.002682495,15.964661,-19.872131,-48.0194086
8.05474E+12,0.7745209,3.2481232,7.991379,0.10624695,-0.20799255,-0.026794434,16.297913,-19.441223,-48.806763,0.829711908,3.22221068,8.3268066,0.082354738,-0.204623412,-0.005477905,16.047974,-19.764404,-48.2162472
8.05474E+12,0.74082947,3.2869568,7.926117,0.09805298,-0.20373535,-0.038772583,16.297913,-19.441223,-48.806763,0.810803222,3.23339232,8.1770996,0.092572023,-0.206826782,-0.016091919,16.131287,-19.656677,-48.4130858
8.05475E+12,0.69447327,3.3470306,7.898758,0.081954956,-0.20275879,-0.047470093,16.297913,-19.441223,-48.806763,0.771841436,3.25861204,8.0528168,0.095251466,-0.20652771,-0.026922608,16.2146,-19.54895,-48.6099244
8.05475E+12,0.64338684,3.3472595,7.9580994,0.06402588,-0.20851135,-0.054031372,16.755676,-19.136047,-49.10431,0.733331304,3.28558654,7.98409428,0.09043274,-0.206414794,-0.03677063,16.3894656,-19.3801878,-48.8662724
8.05476E+12,0.5895996,3.3173523,8.060684,0.04763794,-0.22007751,-0.06059265,16.755676,-19.136047,-49.10431,0.688562016,3.30934448,7.96700748,0.079583741,-0.20861511,-0.045532226,16.4810182,-19.3191526,-48.9257818
8.05476E+12,0.53518677,3.3283691,8.188385,0.036209106,-0.23469543,-0.06565857,16.755676,-19.136047,-49.10431,0.64069519,3.32539366,8.00640868,0.065576172,-0.213955686,-0.053305054,16.5725708,-19.2581174,-48.9852912
8.05477E+12,0.4796753,3.2999878,8.378128,0.028244019,-0.2482605,-0.06802368,16.755676,-19.136047,-49.10431,0.588464356,3.32799986,8.09681088,0.05161438,-0.222860716,-0.059155273,16.6641234,-19.1970822,-49.0448006
8.05477E+12,0.4488678,3.3167114,8.6671295,0.020523071,-0.25749207,-0.06713867,15.913391,-19.346619,-48.69232,0.539343262,3.32193602,8.25048518,0.039328003,-0.233807372,-0.063088988,16.587219,-19.1781614,-49.021912
8.05478E+12,0.49423218,3.3446655,9.00235,0.010681152,-0.26301575,-0.0617218,15.913391,-19.346619,-48.69232,0.50951233,3.32141722,8.4593353,0.028659058,-0.244708252,-0.064627074,16.418762,-19.2202758,-48.939514
8.05478E+12,0.57670593,3.387207,9.340363,0.004745483,-0.261261,-0.05404663,15.913391,-19.346619,-48.69232,0.506933596,3.33538816,8.7152711,0.020080566,-0.25294495,-0.06331787,16.250305,-19.2623902,-48.857116
8.05479E+12,0.63749695,3.4395447,9.562119,0.005477905,-0.24946594,-0.045822144,15.913391,-19.346619,-48.69232,0.527395632,3.35762328,8.9900179,0.013934326,-0.255899052,-0.059350585,16.081848,-19.3045046,-48.774718
8.05479E+12,0.740921,3.4935913,9.757523,0.012588501,-0.230896,-0.037994385,15.060425,-19.587708,-48.9563,0.579644772,3.39634398,9.2658969,0.010803223,-0.252426152,-0.053344726,15.7427978,-19.3948368,-48.745116
8.0548E+12,0.80288696,3.5690765,9.9904175,0.02772522,-0.20536804,-0.032699585,15.060425,-19.587708,-48.9563,0.650448604,3.446817,9.5305545,0.012243652,-0.242001346,-0.046456909,15.5722046,-19.4430546,-48.797912
8.0548E+12,0.78645325,3.649887,10.159744,0.046936035,-0.17532349,-0.031936646,15.060425,-19.587708,-48.9563,0.708892818,3.5078613,9.7620333,0.019494629,-0.224462894,-0.040499878,15.4016114,-19.4912724,-48.850708
8.05481E+12,0.722702,3.6568909,10.273651,0.067596436,-0.14234924,-0.035079956,15.060425,-19.587708,-48.9563,0.738092032,3.56179808,9.9486909,0.032064819,-0.200680542,-0.036706543,15.2310182,-19.5394902,-48.903504
8.05481E+12,0.5830078,3.574829,10.305145,0.08728027,-0.10324097,-0.04084778,14.866638,-19.651794,-49.272156,0.727194202,3.58885494,10.0972961,0.048425292,-0.171435548,-0.03571167,15.0216676,-19.6005252,-49.0194712
8.05482E+12,0.532547,3.5135803,10.177322,0.10731506,-0.05734253,-0.0473938,14.866638,-19.651794,-49.272156,0.685519402,3.59285274,10.1812559,0.067370604,-0.136724854,-0.037591553,14.9829102,-19.6133424,-49.0826424
8.05482E+12,0.47763062,3.436325,10.006134,0.12284851,-0.012359619,-0.050827026,14.866638,-19.651794,-49.272156,0.620468134,3.56630244,10.1843992,0.086395262,-0.09812317,-0.041217042,14.9441528,-19.6261596,-49.1458136
8.05483E+12,0.48887634,3.4519653,9.938156,0.13293457,0.03302002,-0.047027588,14.866638,-19.651794,-49.272156,0.560952752,3.5267181,10.1400816,0.103594969,-0.056454468,-0.04423523,14.9053954,-19.6389768,-49.2089848
8.05483E+12,0.53700256,3.5412445,9.843063,0.13430786,0.066848755,-0.037109375,15.100098,-19.184875,-48.58551,0.523812864,3.50358882,10.053964,0.116937254,-0.014614869,-0.044641114,14.91333,-19.5584102,-49.1348268
8.05484E+12,0.52285767,3.6298218,9.844742,0.12989807,0.084747314,-0.027008057,15.100098,-19.184875,-48.58551,0.511782838,3.51458738,9.9618834,0.125460814,0.022982788,-0.041873169,14.960022,-19.4650264,-48.9974976
8.05484E+12,0.49900818,3.6621094,9.869064,0.12185669,0.09213257,-0.01802063,15.100098,-19.184875,-48.58551,0.505075074,3.5442932,9.9002318,0.12836914,0.052877808,-0.035998535,15.006714,-19.3716426,-48.8601684
8.05485E+12,0.51600647,3.646576,9.872787,0.106918335,0.092315674,-0.012786865,15.100098,-19.184875,-48.58551,0.512750244,3.5863434,9.8735624,0.125183105,0.073812867,-0.028390503,15.053406,-19.2782588,-48.7228392
8.05485E+12,0.566803,3.6807861,9.928436,0.09060669,0.0861969,-0.010360718,14.138794,-19.560242,-47.68524,0.528335576,3.63210756,9.8716184,0.116717529,0.084448243,-0.021057129,14.9078372,-19.2599484,-48.405456
8.05486E+12,0.5823517,3.750763,10.073425,0.06947327,0.07354736,-0.008987427,14.138794,-19.560242,-47.68524,0.537405404,3.67401126,9.9176908,0.103750611,0.085787964,-0.015432739,14.7155764,-19.3350218,-48.225402
8.05486E+12,0.56803894,3.815155,10.314789,0.04093933,0.058441162,-0.008850098,14.138794,-19.560242,-47.68524,0.546441658,3.7110779,10.0117002,0.085958863,0.080526733,-0.011801148,14.5233156,-19.4100952,-48.045348
8.05487E+12,0.6026459,3.8493652,10.723373,0.005508423,0.04411316,-0.011795044,14.138794,-19.560242,-47.68524,0.567169202,3.74852906,10.182562,0.06268921,0.070922851,-0.01055603,14.3310548,-19.4851686,-47.865294
8.05487E+12,0.6324463,3.7080994,11.163849,-0.03465271,0.032913208,-0.019104004,13.6657715,-19.822693,-47.428894,0.590457168,3.76083374,10.4407744,0.034375001,0.059042358,-0.011819458,14.0441895,-19.6127322,-47.6339708
8.05488E+12,0.6048889,3.5524902,11.54277,-0.06893921,0.029205322,-0.027801514,13.6657715,-19.822693,-47.428894,0.598074348,3.73517456,10.7636412,0.002465821,0.047644042,-0.015307617,13.949585,-19.6652224,-47.5827016
8.05488E+12,0.516922,3.3070374,12.10228,-0.0945282,0.032058716,-0.03591919,13.6657715,-19.822693,-47.428894,0.584988408,3.64642944,11.1694122,-0.030334473,0.039346314,-0.02069397,13.8549805,-19.7177126,-47.5314324
8.05489E+12,0.34532166,3.2005463,12.423843,-0.110580444,0.042129517,-0.039718628,14.700317,-20.341492,-47.932434,0.540444952,3.5235077,11.591223,-0.060638428,0.036083985,-0.026867676,13.9672851,-19.8739626,-47.5808712
8.05489E+12,0.33546448,3.1795502,12.856033,-0.11225891,0.05857849,-0.031906128,14.700317,-20.341492,-47.932434,0.487008668,3.3895447,12.017755,-0.084191895,0.038977051,-0.030889893,14.0795897,-20.0302126,-47.63031
8.0549E+12,0.16133118,3.128296,13.171677,-0.09933472,0.07557678,-0.019882202,14.700317,-20.341492,-47.932434,0.392785644,3.27358402,12.4193206,-0.097128297,0.047509765,-0.031045532,14.2864988,-20.1339724,-47.731018
8.0549E+12,0.059249878,3.0514374,13.448013,-0.06867981,0.0848999,-0.006408691,14.700317,-20.341492,-47.932434,0.28365784,3.17337346,12.8003692,-0.097076417,0.058648681,-0.026766968,14.4934079,-20.2377322,-47.831726
8.05491E+12,-0.066207886,3.0056763,13.512161,-0.024047852,0.08824158,0.011199951,16.345215,-18.94226,-47.587585,0.167031862,3.11310124,13.0823454,-0.082980347,0.069885253,-0.01734314,15.0292966,-20.0616456,-47.8634642
8.05491E+12,-0.15032959,2.995041,13.395386,0.03138733,0.09236145,0.030929565,16.345215,-18.94226,-47.587585,0.067901612,3.07200018,13.276654,-0.054586792,0.07993164,-0.003213501,15.3582762,-19.7817992,-47.7944944
8.05492E+12,-0.19641113,2.970337,13.214249,0.09388733,0.09687805,0.05718994,16.345215,-18.94226,-47.587585,-0.03847351,3.03015754,13.3482972,-0.013357544,0.087591552,0.014605713,15.6872558,-19.5019528,-47.7255246
8.05492E+12,-0.26794434,2.963623,13.136337,0.14587402,0.09996033,0.07807922,16.345215,-18.94226,-47.587585,-0.124328614,2.99722294,13.3412292,0.035684204,0.092468262,0.034197997,16.0162354,-19.2221064,-47.6565548
8.05493E+12,-0.23725891,2.9893036,13.082565,0.18247986,0.10279846,0.099624634,16.755676,-18.449402,-47.428894,-0.183630371,2.98479618,13.2681396,0.085916138,0.096047974,0.055404662,16.4273072,-18.8436884,-47.5558468
8.05493E+12,-0.18904114,3.0236664,12.933212,0.20458984,0.1103363,0.11831665,16.755676,-18.449402,-47.428894,-0.208197022,2.9883942,13.1523498,0.131643676,0.100466918,0.076828002,16.5093994,-18.7451168,-47.5241086
8.05494E+12,-0.11643982,3.1121216,12.805801,0.21723938,0.12705994,0.13168335,16.755676,-18.449402,-47.428894,-0.201419068,3.01181032,13.0344328,0.168814086,0.107406616,0.096978759,16.5914916,-18.6465452,-47.4923704
8.05494E+12,-0.10626221,3.2389374,12.571106,0.21839905,0.15074158,0.1379242,16.755676,-18.449402,-47.428894,-0.183389284,3.0655304,12.9058042,0.19371643,0.118179322,0.113125611,16.6735838,-18.5479736,-47.4606322
8.05495E+12,-0.106796265,3.31044,12.320496,0.20274353,0.18721008,0.1377716,14.920044,-19.720459,-48.391724,-0.151159669,3.1348938,12.742636,0.205090332,0.135629272,0.125064087,16.3885496,-18.7036134,-47.62146
8.05495E+12,-0.1356659,3.3567047,12.015198,0.17402649,0.22895813,0.12857056,14.920044,-19.720459,-48.391724,-0.130841067,3.20837402,12.5291626,0.203399658,0.160861206,0.130853272,16.0214232,-18.9578248,-47.814026
8.05496E+12,-0.2002716,3.2993927,11.736206,0.13502502,0.2680664,0.11073303,14.920044,-19.720459,-48.391724,-0.133087159,3.26351928,12.2897614,0.189486694,0.192407226,0.129336548,15.6542968,-19.2120362,-48.006592
8.05496E+12,-0.2748413,3.173355,11.601746,0.09156799,0.29597473,0.08621216,14.920044,-19.720459,-48.391724,-0.164767455,3.27576596,12.0489504,0.164352416,0.226190184,0.12024231,15.2871704,-19.4662476,-48.199158
8.05497E+12,-0.3917694,2.983078,11.49678,0.045272827,0.31617737,0.05999756,15.519714,-19.85321,-47.90497,-0.221868893,3.22459408,11.8340852,0.129727171,0.259277342,0.104656982,15.039978,-19.7470092,-48.2943732
8.05497E+12,-0.5061798,2.8118896,11.379913,-0.008239746,0.33836365,0.03627014,15.519714,-19.85321,-47.90497,-0.3017456,3.124884,11.6459686,0.087530516,0.289508056,0.08435669,15.159912,-19.7735594,-48.1970224
8.05498E+12,-0.59539795,2.7848358,11.248001,-0.070114136,0.36631775,0.018173218,15.519714,-19.85321,-47.90497,-0.39369201,3.01051022,11.4925292,0.038702391,0.31697998,0.062277222,15.279846,-19.8001096,-48.0996716
8.05498E+12,-0.6818085,2.7761383,11.232956,-0.1260376,0.3873291,0.008575439,15.519714,-19.85321,-47.90497,-0.48999939,2.90585934,11.3918792,-0.013510133,0.34083252,0.041845703,15.39978,-19.8266598,-48.0023208
8.05499E+12,-0.7779999,2.676773,11.245026,-0.17538452,0.38890076,0.002044678,15.725708,-19.822693,-47.76306,-0.59063111,2.80654294,11.3205352,-0.066900635,0.359417726,0.025012207,15.5609128,-19.8471066,-47.876588
8.05499E+12,-0.84381104,2.5271149,11.323502,-0.2130127,0.3640747,-0.004013062,15.725708,-19.822693,-47.76306,-0.681039438,2.71535032,11.2858796,-0.11855774,0.368997192,0.012210083,15.6021116,-19.8410032,-47.848206
8.055E+12,-0.8721924,2.3213959,11.467361,-0.23316956,0.3158722,-0.008255005,15.725708,-19.822693,-47.76306,-0.754241958,2.61725158,11.3033692,-0.163543703,0.364498902,0.003305054,15.6433104,-19.8348998,-47.819824
8.055E+12,-0.90382385,2.1069336,11.551865,-0.23872375,0.24757385,-0.009368897,15.725708,-19.822693,-47.76306,-0.815927138,2.48167114,11.364142,-0.197265626,0.340750122,-0.002203369,15.6845092,-19.8287964,-47.791442
8.05501E+12,-0.917923,1.9841919,11.548386,-0.23402405,0.17050171,-0.007019043,15.725708,-20.741272,-48.658752,-0.863150038,2.32328186,11.427228,-0.218862916,0.297384644,-0.005322266,15.725708,-20.0064088,-47.9421984
8.05501E+12,-0.91352844,1.9056396,11.571808,-0.22999573,0.10194397,-0.001220703,15.725708,-20.741272,-48.658752,-0.890255746,2.16905518,11.4925844,-0.229785158,0.239993286,-0.005975342,15.725708,-20.1901246,-48.1213368
8.05502E+12,-0.8436432,1.8269653,11.624069,-0.23371887,0.045898438,0.006439209,15.725708,-20.741272,-48.658752,-0.890222178,2.02902526,11.5526978,-0.233926392,0.176358034,-0.003884888,15.725708,-20.3738404,-48.3004752
8.05502E+12,-0.67367554,1.7671356,11.736206,-0.24813843,0.004562378,0.013397217,15.725708,-20.741272,-48.658752,-0.850518806,1.9181732,11.6064668,-0.236920166,0.114096069,0.000445557,15.725708,-20.5575562,-48.4796136
8.05503E+12,-0.45321655,1.7233582,11.868149,-0.26654053,-0.0259552,0.01965332,15.725708,-19.619751,-47.564697,-0.760397346,1.84145812,11.6697236,-0.242483522,0.059390259,0.00625,15.725708,-20.5169678,-48.439941
8.05503E+12,-0.35035706,1.6690063,12.023621,-0.28240967,-0.056793213,0.025650024,15.725708,-19.619751,-47.564697,-0.646884158,1.778421,11.7647706,-0.252160646,0.013931275,0.012783813,15.725708,-20.2926636,-48.22113
8.05504E+12,-0.4111328,1.539978,12.159485,-0.28755188,-0.08970642,0.02520752,15.725708,-19.619751,-47.564697,-0.54640503,1.70528868,11.882306,-0.263671876,-0.024398803,0.018069458,15.725708,-20.0683594,-48.002319
8.05504E+12,-0.51849365,1.3074799,12.280914,-0.28082275,-0.11785889,0.020355225,15.725708,-19.619751,-47.564697,-0.48137512,1.6013916,12.013675,-0.273092652,-0.057150269,0.020852661,15.725708,-19.8440552,-47.783508
8.05505E+12,-0.5615845,1.1503448,12.345413,-0.26538086,-0.13275146,0.01651001,15.725708,-19.47937,-47.428894,-0.458956912,1.47803344,12.1355164,-0.276541138,-0.084613037,0.02147522,15.725708,-19.5916748,-47.5375364
8.05505E+12,-0.6263733,1.0014191,12.260223,-0.24209595,-0.13124084,0.019866943,15.725708,-19.47937,-47.428894,-0.493588262,1.33364562,12.2139312,-0.271652222,-0.105670165,0.021517944,15.725708,-19.5635986,-47.5103758
8.05506E+12,-0.7032776,0.87016296,12.136276,-0.21520996,-0.109451294,0.02897644,15.725708,-19.47937,-47.428894,-0.56417237,1.173876952,12.2364622,-0.25821228,-0.116201781,0.022183228,15.725708,-19.5355224,-47.4832152
8.05506E+12,-0.84114075,0.7508087,11.958084,-0.17744446,-0.069366455,0.04560852,15.725708,-19.47937,-47.428894,-0.65017396,1.016043092,12.196182,-0.236190796,-0.112133788,0.026263428,15.725708,-19.5074462,-47.4560546
8.05507E+12,-0.92848206,0.6411743,11.594101,-0.13424683,-0.02104187,0.06781006,15.229797,-20.306396,-48.554993,-0.732171642,0.882781972,12.0588194,-0.206875612,-0.092770384,0.035754395,15.6265258,-19.6447752,-47.6541138
8.05507E+12,-0.9824524,0.562027,11.1073,-0.08558655,0.03125,0.09649658,15.229797,-20.306396,-48.554993,-0.816345222,0.765118412,11.8111968,-0.17091675,-0.059970092,0.051751709,15.5273436,-19.8101804,-47.8793336
8.05508E+12,-0.9373627,0.59147644,10.611649,-0.03942871,0.08258057,0.12974548,15.229797,-20.306396,-48.554993,-0.878543102,0.68312988,11.481482,-0.130383302,-0.01720581,0.073727416,15.4281614,-19.9755856,-48.1045534
8.05508E+12,-0.8684845,0.5926666,10.083969,-0.002319336,0.13891602,0.16267395,15.229797,-20.306396,-48.554993,-0.911584482,0.627630608,11.0710206,-0.087805177,0.032467653,0.100466918,15.3289792,-20.1409908,-48.3297732
8.05509E+12,-0.71751404,0.6426239,9.526642,0.021057129,0.19378662,0.19325256,14.213562,-19.343567,-47.628784,-0.88685914,0.605993648,10.5847322,-0.048104859,0.085098268,0.129995726,15.02655,-20.1138302,-48.3697512
8.05509E+12,-0.61753845,0.71055603,9.050171,0.03529358,0.2574463,0.22497559,14.213562,-19.343567,-47.628784,-0.824670418,0.619869994,10.0759462,-0.014196777,0.140795902,0.161428832,14.823303,-19.9212644,-48.1845094
8.0551E+12,-0.50627136,0.7555847,8.454712,0.037887573,0.31150818,0.24934387,14.213562,-19.343567,-47.628784,-0.72943421,0.658581534,9.5454286,0.010498047,0.196847538,0.19199829,14.620056,-19.7286986,-47.9992676
8.05511E+12,-0.45643616,0.86772156,7.9166718,0.036743164,0.35302734,0.2679596,14.213562,-19.343567,-47.628784,-0.633248902,0.713830558,9.00643316,0.025732422,0.250936892,0.219641114,14.416809,-19.5361328,-47.8140258
8.05511E+12,-0.36351013,0.9947357,7.3935547,0.028030396,0.3751831,0.28085327,14.213562,-19.343567,-47.628784,-0.532254028,0.794244378,8.4683503,0.031802368,0.298190308,0.243276978,14.213562,-19.343567,-47.628784
8.05512E+12,-0.26643372,1.0398865,7.021103,0.028030396,0.3751831,0.28085327,14.213562,-19.343567,-47.628784,-0.442037964,0.873696898,7.9672425,0.033197022,0.334469604,0.26079712,14.213562,-19.343567,-47.628784
8.05512E+12,-0.3130951,1.185791,6.5855103,0.004806519,0.3527527,0.2923584,14.213562,-19.343567,-47.628784,-0.381149294,0.968743892,7.47431036,0.02709961,0.353530884,0.274273682,14.213562,-19.343567,-47.628784
8.05513E+12,-0.2731018,1.1812897,6.327942,-0.02029419,0.30693054,0.28831482,14.18457,-19.311523,-47.599792,-0.334515382,1.053884892,7.04895636,0.015463257,0.352615356,0.282067872,14.2077636,-19.3371582,-47.6229856
8.05513E+12,-0.3362732,1.2588348,6.1840363,-0.048355103,0.25151062,0.2795105,14.18457,-19.311523,-47.599792,-0.31048279,1.13210754,6.70242926,-0.001556396,0.332312012,0.284378052,14.2019652,-19.3307494,-47.6171872
8.05514E+12,-0.26924133,1.3109283,6.19606,-0.07977295,0.18411255,0.2703247,14.18457,-19.311523,-47.599792,-0.29162903,1.19534606,6.46293032,-0.023117066,0.294097902,0.282272338,14.1961668,-19.3243406,-47.6113888
8.05514E+12,-0.32518005,1.3449707,6.198944,-0.11097717,0.10270691,0.25772095,14.18457,-19.311523,-47.599792,-0.303378296,1.2563629,6.29849852,-0.050918579,0.239602664,0.277645874,14.1903684,-19.3179318,-47.6055904
8.05515E+12,-0.38056946,1.2260132,6.371002,-0.14343262,0.015136719,0.24281311,14.877319,-19.685364,-48.254395,-0.316873168,1.26440734,6.25559686,-0.080566407,0.172079468,0.267736816,14.3231198,-19.3862912,-47.7307126
8.05515E+12,-0.45732117,1.065506,6.585388,-0.17037964,-0.068878174,0.22982788,14.877319,-19.685364,-48.254395,-0.353717042,1.2412506,6.30708606,-0.110583497,0.096917725,0.256039428,14.4616696,-19.4610594,-47.8616332
8.05516E+12,-0.41275024,0.9952698,6.823944,-0.1993103,-0.15486145,0.21977234,14.877319,-19.685364,-48.254395,-0.36901245,1.1885376,6.4350676,-0.140774536,0.015643311,0.244091796,14.6002194,-19.5358276,-47.9925538
8.05516E+12,-0.37660217,0.9854431,7.0437927,-0.22143555,-0.22563171,0.21681213,14.877319,-19.685364,-48.254395,-0.390484618,1.12344056,6.60461414,-0.169107056,-0.066305541,0.233389282,14.7387692,-19.6105958,-48.1234744
8.05517E+12,-0.29588318,1.0419464,7.3246,-0.24082947,-0.2866211,0.21884155,15.209961,-20.681763,-47.93091,-0.384625244,1.0628357,6.82974534,-0.195077516,-0.144171143,0.225613402,14.9438474,-19.8846438,-48.189698
8.05517E+12,-0.27833557,1.0792084,7.6700745,-0.25808716,-0.33831787,0.22322083,15.209961,-20.681763,-47.93091,-0.364178466,1.03347474,7.08955984,-0.218008424,-0.214862061,0.221694946,15.0103758,-20.0839236,-48.125001
8.05518E+12,-0.22964478,1.0383606,8.0816345,-0.27095032,-0.37869263,0.2268219,15.209961,-20.681763,-47.93091,-0.318643188,1.02804566,7.38880914,-0.23812256,-0.276824952,0.22109375,15.0769042,-20.2832034,-48.060304
8.05518E+12,-0.15046692,0.9671478,8.501434,-0.2805786,-0.40698242,0.22827148,15.209961,-20.681763,-47.93091,-0.266186524,1.02242126,7.72430714,-0.25437622,-0.327249146,0.222793578,15.1434326,-20.4824832,-47.995607
8.05519E+12,-0.053756714,0.9536896,8.846451,-0.28489685,-0.41825867,0.22869873,15.209961,-20.655823,-47.982788,-0.201617433,1.01607056,8.0848388,-0.26706848,-0.365774538,0.225170898,15.209961,-20.676575,-47.9412856
8.05519E+12,0.057495117,1.0041656,9.102386,-0.28053284,-0.40623474,0.23066711,15.209961,-20.655823,-47.982788,-0.130941773,1.0085144,8.440396,-0.275009154,-0.389697266,0.22753601,15.209961,-20.671387,-47.9516612
8.0552E+12,0.18417358,1.0591888,9.281982,-0.27285767,-0.3722229,0.23069763,15.209961,-20.655823,-47.982788,-0.038439943,1.00451048,8.7627775,-0.277963256,-0.396478272,0.22903137,15.209961,-20.666199,-47.9620368
8.0552E+12,0.3043518,1.1493683,9.377762,-0.2637329,-0.31692505,0.22680664,15.209961,-20.655823,-47.982788,0.068359373,1.02671202,9.022003,-0.276519772,-0.384124756,0.229028318,15.209961,-20.661011,-47.9724124
8.05521E+12,0.42240906,1.2710419,9.339645,-0.25268555,-0.24533081,0.22172546,15.174866,-20.132446,-48.60077,0.182934569,1.08749084,9.1896452,-0.270941162,-0.351794434,0.227719114,15.202942,-20.5511476,-48.1063844
8.05521E+12,0.4316864,1.3256531,9.239761,-0.24023438,-0.15821838,0.21063232,15.174866,-20.132446,-48.60077,0.280023191,1.16188354,9.2683072,-0.262008668,-0.299786376,0.224105832,15.195923,-20.4464722,-48.2299808
8.05522E+12,0.31137085,1.2537384,9.068817,-0.22549438,-0.05960083,0.19137573,15.174866,-20.132446,-48.60077,0.330798338,1.2117981,9.2615934,-0.251000976,-0.230459594,0.216247556,15.188904,-20.3417968,-48.3535772
8.05522E+12,0.15148926,1.1854248,8.776459,-0.21142578,0.03668213,0.17019653,15.174866,-20.132446,-48.60077,0.324261474,1.2370453,9.1604888,-0.238714598,-0.148678588,0.204147336,15.181885,-20.2371214,-48.4771736
8.05523E+12,-0.010513306,1.1309509,8.45639,-0.19769287,0.1299591,0.15245056,14.866638,-18.278503,-48.60077,0.261288453,1.23336182,8.9762144,-0.225506592,-0.059301758,0.18927612,15.1132204,-19.7616574,-48.60077
8.05523E+12,-0.16012573,1.0833893,8.094666,-0.18287659,0.21606445,0.14160156,14.866638,-18.278503,-48.60077,0.144781495,1.1958313,8.7272186,-0.2115448,0.032977294,0.17325134,15.0515748,-19.3908688,-48.60077
8.05524E+12,-0.2517395,1.0761108,7.6844482,-0.1676178,0.28459167,0.13917542,14.866638,-18.278503,-48.60077,0.008096315,1.14592284,8.41615604,-0.197021484,0.121539304,0.15895996,14.9899292,-19.0200802,-48.60077
8.05524E+12,-0.2617035,1.1064453,7.2426147,-0.14706421,0.33587646,0.14419556,14.866638,-18.278503,-48.60077,-0.106518555,1.11646422,8.05091558,-0.18133545,0.200634762,0.149523926,14.9282836,-18.6492916,-48.60077
8.05525E+12,-0.2733307,1.1503448,6.7994995,-0.11773682,0.36090088,0.15490723,14.866638,-18.278503,-48.69995,-0.191482547,1.10944822,7.65552368,-0.162597658,0.265478512,0.146466066,14.866638,-18.278503,-48.620606
8.05525E+12,-0.25875854,1.1805573,6.4518433,-0.08305359,0.36187744,0.16915894,14.866638,-18.278503,-48.69995,-0.241131594,1.1193695,7.25461434,-0.139669802,0.31186218,0.149807742,14.866638,-18.278503,-48.640442
8.05526E+12,-0.20965576,1.2921448,6.090225,-0.044052124,0.34202576,0.18441772,14.866638,-18.278503,-48.69995,-0.2510376,1.1611206,6.85372614,-0.111904909,0.337054442,0.158370974,14.866638,-18.278503,-48.660278
8.05526E+12,-0.13160706,1.4053955,5.7016754,-0.003616333,0.3056183,0.20050049,14.866638,-18.278503,-48.69995,-0.227011112,1.22697754,6.45717158,-0.079104615,0.341259768,0.170635988,14.866638,-18.278503,-48.680114
8.05527E+12,-0.023345947,1.5457153,5.363785,0.03388977,0.25686646,0.2130127,14.923096,-18.56842,-49.272156,-0.179339601,1.31483154,6.08140564,-0.042913819,0.325457768,0.184399416,14.8779296,-18.3364864,-48.8143912
8.05527E+12,0.118881226,1.6660461,5.0569305,0.06968689,0.18713379,0.2230072,14.923096,-18.56842,-49.272156,-0.100897216,1.4179718,5.73289184,-0.005429077,0.29070435,0.19801941,14.8892212,-18.3944698,-48.9288324
8.05528E+12,0.19100952,1.7659912,4.960434,0.09710693,0.10847473,0.22850037,14.923096,-18.56842,-49.272156,-0.010943604,1.53505858,5.43460998,0.030603027,0.240023808,0.209887696,14.9005128,-18.4524532,-49.0432736
8.05528E+12,0.32615662,1.8385773,5.0225983,0.113464355,0.027893066,0.22669983,14.923096,-18.56842,-49.272156,0.096218872,1.64434508,5.22108464,0.062106322,0.177197269,0.218344118,14.9118044,-18.5104366,-49.1577148
8.05529E+12,0.43955994,1.9574127,5.2127533,0.114990234,-0.042404175,0.22164917,15.209961,-19.995117,-49.272156,0.210452272,1.75474852,5.12330022,0.085827636,0.107592774,0.222573854,14.980469,-18.8537594,-49.272156
8.05529E+12,0.5039978,2.0840607,5.4464874,0.106414795,-0.09703064,0.21052551,15.209961,-19.995117,-49.272156,0.315921021,1.8624176,5.1398407,0.100332641,0.036813354,0.222076416,15.037842,-19.1390988,-49.272156
8.0553E+12,0.57733154,2.1128082,5.7705994,0.09007263,-0.12826538,0.19570923,15.209961,-19.995117,-49.272156,0.407611084,1.95177002,5.28257448,0.104409789,-0.02626648,0.216616822,15.095215,-19.4244382,-49.272156
8.0553E+12,0.56536865,2.1448822,6.0200806,0.06755066,-0.13812256,0.17547607,15.209961,-19.995117,-49.272156,0.48248291,2.02754822,5.4945038,0.098498535,-0.075585938,0.206011962,15.152588,-19.7097776,-49.272156
8.05531E+12,0.49742126,2.1421356,6.2984924,0.044509888,-0.1214447,0.15464783,15.135193,-19.551086,-49.053955,0.516735838,2.08825988,5.74968262,0.084707641,-0.105453491,0.191601562,15.1950074,-19.9063108,-49.2285158
8.05531E+12,0.46707153,2.181961,6.5115356,0.023590088,-0.08731079,0.13591003,15.135193,-19.551086,-49.053955,0.522238156,2.13316954,6.00943908,0.066427612,-0.114434814,0.174453734,15.1800538,-19.8175046,-49.1848756
8.05532E+12,0.3179474,2.1703033,6.6788483,0.006072998,-0.040893555,0.116363525,15.135193,-19.551086,-49.053955,0.485028076,2.15041806,6.25591126,0.046359253,-0.103207397,0.155621337,15.1651002,-19.7286984,-49.1412354
8.05532E+12,0.22088623,2.149994,6.9181213,0.006072998,-0.040893555,0.116363525,15.135193,-19.551086,-49.053955,0.413739014,2.15785522,6.48541564,0.029559326,-0.085733032,0.139752196,15.1501466,-19.6398922,-49.0975952
8.05533E+12,0.17442322,2.1823425,7.15152,-0.001647949,0.038330078,0.08874512,14.94751,-18.34259,-47.947693,0.335549928,2.16534728,6.71170352,0.015719605,-0.050442504,0.122406006,15.0976564,-19.3093868,-48.8327026
8.05533E+12,0.06173706,2.0995636,7.281708,0.010467529,0.06808472,0.08061218,14.94751,-18.34259,-47.947693,0.248413088,2.15683288,6.90834664,0.008911133,-0.01253662,0.107598876,15.0601198,-19.0676876,-48.6114502
8.05534E+12,-0.07362366,1.998642,7.217102,0.033828735,0.09454346,0.076797485,14.94751,-18.34259,-47.947693,0.14027405,2.12016908,7.04945992,0.010958862,0.02383423,0.095776367,15.0225832,-18.8259884,-48.3901978
8.05534E+12,-0.12889099,1.9718475,7.1842194,0.061294556,0.12286377,0.07980347,15.209961,-19.651794,-46.925354,0.050906372,2.08047792,7.15053414,0.022003174,0.056585695,0.088464356,15.0375368,-18.84613,-47.9644776
8.05535E+12,-0.115112305,2.0907288,7.036331,0.088897705,0.14979553,0.09059143,15.209961,-19.651794,-46.925354,-0.016293335,2.06862488,7.17417608,0.038568115,0.094723512,0.083309937,15.0524904,-18.8662716,-47.5387574
8.05535E+12,-0.09750366,2.1939545,6.936905,0.110702515,0.1743927,0.1078949,15.209961,-19.651794,-46.925354,-0.070678711,2.07094728,7.13125308,0.061038208,0.121936036,0.087139893,15.1049806,-19.1281124,-47.3342896
8.05536E+12,-0.012252808,2.2943115,6.7754364,0.125,0.1949768,0.12425232,15.209961,-19.651794,-46.925354,-0.085476685,2.10989686,7.02999876,0.083944702,0.147314452,0.095867921,15.1574708,-19.3899532,-47.1298218
8.05536E+12,0.03945923,2.3394623,6.81868,0.12934875,0.20768738,0.14089966,14.912415,-19.554138,-47.60132,-0.062860107,2.17806092,6.95031436,0.103048705,0.169943236,0.108688356,15.1504518,-19.6322628,-47.0605472
8.05537E+12,0.13983154,2.4605713,6.9492035,0.125,0.21282959,0.15245056,14.912415,-19.554138,-47.60132,-0.009115601,2.27580568,6.90331118,0.115789794,0.1879364,0.123217774,15.0909426,-19.6127316,-47.1957404
8.05537E+12,0.20013428,2.5823975,7.1327667,0.112716675,0.21044922,0.16175842,14.912415,-19.554138,-47.60132,0.053933716,2.37413942,6.92259832,0.120553588,0.200067138,0.137451172,15.0314334,-19.5932004,-47.3309336
8.05538E+12,0.25697327,2.6917725,7.3521423,0.09992981,0.19807434,0.16738892,14.912415,-19.554138,-47.60132,0.124829102,2.47370302,7.00564578,0.118399047,0.204803466,0.149349976,14.9719242,-19.5736692,-47.4661268
8.05538E+12,0.2618103,2.7941132,7.526779,0.08987427,0.1773529,0.16595459,14.389038,-19.519043,-49.066162,0.179641724,2.57366336,7.1559143,0.111373901,0.201278686,0.15769043,14.8077396,-19.547119,-47.8942884
8.05539E+12,0.2292633,2.8578491,7.7086945,0.084609985,0.15008545,0.15904236,14.389038,-19.519043,-49.066162,0.217602538,2.67734072,7.3339172,0.102426148,0.1897583,0.16131897,14.7030642,-19.5401,-48.1872568
8.05539E+12,0.14772034,2.857895,8.005417,0.07737732,0.1085968,0.14414978,14.389038,-19.519043,-49.066162,0.219180298,2.75680546,7.5451599,0.092901612,0.168911742,0.159658814,14.5983888,-19.533081,-48.4802252
8.0554E+12,0.005050659,2.815506,8.512543,0.0667572,0.061798096,0.12440491,14.389038,-19.519043,-49.066162,0.180163574,2.80342716,7.82111516,0.083709717,0.139181517,0.152188112,14.4937134,-19.526062,-48.7731936
8.0554E+12,-0.08483887,2.7946472,9.189545,0.053451538,0.011245728,0.10331726,14.866638,-19.995117,-48.60077,0.111801146,2.8240021,8.1885957,0.074414063,0.101815795,0.13937378,14.484558,-19.6142578,-48.9730836
8.05541E+12,-0.1580658,2.7525635,9.888824,0.04168701,-0.034332275,0.085861206,14.866638,-19.995117,-48.60077,0.027825926,2.81569216,8.6610047,0.064776611,0.05947876,0.123355103,14.580078,-19.7094726,-48.8800052
8.05541E+12,-0.21873474,2.6377106,10.513657,0.04135132,-0.07373047,0.072525024,14.866638,-19.995117,-48.60077,-0.061773682,2.77166446,9.2219972,0.056124878,0.014715576,0.106051636,14.675598,-19.8046874,-48.7869268
8.05542E+12,-0.30410767,2.4855957,11.14743,0.05783081,-0.1048584,0.060928345,14.866638,-19.995117,-48.60077,-0.152139284,2.6972046,9.8503998,0.052215576,-0.027975464,0.089407349,14.771118,-19.8999022,-48.6938484
8.05542E+12,-0.3759613,2.321167,11.462219,0.095687866,-0.12753296,0.054229736,14.927673,-19.56482,-48.66028,-0.228341676,2.5983368,10.440335,0.058001709,-0.065841675,0.075372314,14.878845,-19.9090576,-48.612672
8.05543E+12,-0.38319397,2.1611328,11.593658,0.14756775,-0.13859558,0.05418396,14.927673,-19.56482,-48.66028,-0.288012696,2.47163392,10.9211576,0.076824951,-0.095809937,0.065545654,14.891052,-19.8229982,-48.624574
8.05543E+12,-0.39067078,2.0865784,11.692596,0.20315552,-0.13679504,0.05860901,14.927673,-19.56482,-48.66028,-0.334533692,2.3384369,11.281912,0.109118653,-0.11630249,0.060095215,14.903259,-19.7369388,-48.636476
8.05544E+12,-0.3748474,2.0574493,11.90892,0.24787903,-0.12449646,0.06866455,14.927673,-19.56482,-48.66028,-0.365756224,2.22238464,11.5609646,0.150424195,-0.126455688,0.05932312,14.915466,-19.6508794,-48.648378
8.05544E+12,-0.29815674,2.006546,12.147125,0.27452087,-0.10423279,0.08294678,14.653015,-19.050598,-49.269104,-0.364566038,2.1265747,11.7609036,0.193762207,-0.126330566,0.063726807,14.8727414,-19.4619756,-48.7820448
8.05545E+12,-0.22259521,1.9322357,12.337799,0.28536987,-0.070495605,0.09887695,14.653015,-19.050598,-49.269104,-0.33389282,2.04878844,11.9360196,0.231698608,-0.114923095,0.07265625,14.8178098,-19.3591312,-48.9038096
8.05545E+12,-0.115371704,1.9046478,12.5125885,0.28678894,-0.020629883,0.11340332,14.653015,-19.050598,-49.269104,-0.280328367,1.99749144,12.1198057,0.259542846,-0.091329956,0.084500122,14.7628782,-19.2562868,-49.0255744
8.05546E+12,0.0128479,1.9428253,12.481689,0.28126526,0.037841797,0.12654114,14.653015,-19.050598,-49.269104,-0.199624631,1.96874082,12.2776243,0.275164794,-0.056402588,0.098086548,14.7079466,-19.1534424,-49.1473392
8.05546E+12,0.12802124,2.0168762,12.340363,0.26756287,0.10031128,0.13748169,14.009094,-19.47937,-50.109863,-0.099050903,1.9606262,12.3639129,0.279101562,-0.01144104,0.111849976,14.5242308,-19.1363524,-49.4372558
8.05547E+12,0.22180176,2.1017914,12.204773,0.24380493,0.15852356,0.14289856,14.009094,-19.47937,-50.109863,0.004940797,1.97967528,12.3754425,0.272958374,0.04111023,0.123840332,14.3954466,-19.2221068,-49.6054076
8.05547E+12,0.32867432,2.1883545,12.115616,0.21080017,0.20014954,0.1403656,14.009094,-19.47937,-50.109863,0.115194703,2.03089904,12.3310059,0.258044434,0.095239259,0.132138062,14.2666624,-19.3078612,-49.7735594
8.05548E+12,0.5309448,2.2164307,12.258972,0.16545105,0.2272644,0.12944031,14.009094,-19.47937,-50.109863,0.244458004,2.09325562,12.2802826,0.233776856,0.144818115,0.13534546,14.1378782,-19.3936156,-49.9417112
8.05548E+12,0.70495605,2.2535553,12.559921,0.11172485,0.23474121,0.113601685,14.889526,-19.332886,-48.81897,0.382879634,2.15540162,12.295929,0.199868774,0.184197998,0.132757569,14.1851804,-19.4500732,-49.8516844
8.05549E+12,0.9353485,2.273056,12.884552,0.05783081,0.22019958,0.089660645,14.889526,-19.332886,-48.81897,0.544345086,2.20663758,12.4047668,0.157922362,0.208175658,0.12319336,14.3612668,-19.4207764,-49.5935058
8.05549E+12,1.0760803,2.2514954,13.14183,0.01260376,0.18304443,0.05545044,14.889526,-19.332886,-48.81897,0.715200794,2.23657838,12.5921782,0.111682128,0.213079832,0.105703736,14.5373532,-19.3914796,-49.3353272
8.0555E+12,1.0932312,2.149887,13.341003,-0.014785767,0.11936951,0.015014648,14.889526,-19.332886,-48.81897,0.86811217,2.22888488,12.8372556,0.066564941,0.196923826,0.080633546,14.7134396,-19.3621828,-49.0771486
8.0555E+12,0.9556732,1.9820251,13.611984,-0.021255493,0.0382843,-0.030944824,15.534973,-20.126343,-47.613525,0.95305785,2.18200376,13.107858,0.029223632,0.159127806,0.048556519,15.0186154,-19.4915774,-48.577881
8.05551E+12,0.68955994,1.7516937,13.755768,-0.009796143,-0.07170105,-0.088409424,15.534973,-20.126343,-47.613525,0.949978628,2.08163144,13.3470274,0.004919433,0.097839354,0.008154297,15.1477048,-19.6502688,-48.336792
8.05551E+12,0.37820435,1.4396667,13.964462,0.015228272,-0.18591309,-0.1350708,15.534973,-20.126343,-47.613525,0.838549798,1.91495358,13.5630094,-0.003601074,0.01661682,-0.036791992,15.2767942,-19.8089602,-48.095703
8.05552E+12,0.09700012,1.2124481,14.126022,0.048461914,-0.28981018,-0.16999817,15.534973,-20.126343,-47.613525,0.642733762,1.70714412,13.7598478,0.003570557,-0.077954102,-0.081881714,15.4058836,-19.9676516,-47.854614
8.05552E+12,-0.109191895,0.99516296,14.180084,0.07814026,-0.372818,-0.18850708,14.866638,-21.368408,-48.2666,0.402249143,1.476199312,13.927664,0.022155762,-0.176391604,-0.12258606,15.401306,-20.374756,-47.74414
8.05553E+12,-0.12510681,0.86875916,14.035904,0.10769653,-0.42990112,-0.18830872,14.866638,-21.368408,-48.2666,0.186093141,1.253546124,14.012448,0.047946167,-0.270028688,-0.154058839,15.267639,-20.623169,-47.874755
8.05553E+12,-0.05319214,0.8069,13.793747,0.13311768,-0.45991516,-0.17346191,14.866638,-21.368408,-48.2666,0.037542725,1.064587384,14.0200438,0.076528931,-0.34767151,-0.171069336,15.133972,-20.871582,-48.00537
8.05554E+12,0.059158325,0.8297882,13.628586,0.15449524,-0.47502136,-0.14846802,15.122986,-19.743347,-47.514343,-0.02626648,0.942611684,13.9528686,0.104382325,-0.405493164,-0.17374878,15.0515746,-20.7949828,-47.9855336
8.05554E+12,0.10978699,0.81211853,13.222443,0.1673584,-0.4723053,-0.12435913,15.122986,-19.743347,-47.514343,-0.023709106,0.86254577,13.7721528,0.128161622,-0.441992188,-0.164620972,14.9691772,-20.7183836,-47.9656972
8.05555E+12,0.15248108,0.7992859,12.792633,0.17208862,-0.45515442,-0.09950256,15.122986,-19.743347,-47.514343,0.028625489,0.823370358,13.4946626,0.146951294,-0.458459472,-0.146820068,15.0204468,-20.3933714,-47.8152458
8.05555E+12,0.22026062,0.94311523,12.3428955,0.16404724,-0.42625427,-0.08027649,15.122986,-19.743347,-47.514343,0.097698975,0.838241572,13.1560609,0.158221436,-0.457730102,-0.125213622,15.0717164,-20.0683592,-47.6647944
8.05556E+12,0.3867035,1.1334839,12.211594,0.13922119,-0.39317322,-0.06665039,14.503479,-19.335938,-47.78595,0.185678103,0.903558352,12.8396303,0.159442138,-0.444381714,-0.103851318,14.9990846,-19.6618652,-47.5686644
8.05556E+12,0.4459076,1.2690582,11.975235,0.1058197,-0.3659973,-0.057785034,14.503479,-19.335938,-47.78595,0.263027958,0.991412352,12.5089601,0.14970703,-0.422576902,-0.085714721,14.8751832,-19.5803834,-47.6229858
8.05557E+12,0.5031433,1.3447113,11.97847,0.058883667,-0.3461151,-0.05609131,14.503479,-19.335938,-47.78595,0.34169922,1.097930906,12.2601655,0.128012083,-0.397338862,-0.072061157,14.7512818,-19.4989016,-47.6773072
8.05557E+12,0.5923004,1.3943787,11.899063,0.014190674,-0.3354187,-0.06600952,14.503479,-19.335938,-47.78595,0.429663084,1.216949466,12.0814515,0.096432494,-0.373391718,-0.065362549,14.6273804,-19.4174198,-47.7316286
8.05558E+12,0.6921997,1.4966736,11.813873,-0.029541016,-0.33148193,-0.08262634,13.6657715,-20.509338,-48.768616,0.5240509,1.32766114,11.975647,0.057714843,-0.35443725,-0.065832519,14.3359375,-19.570618,-47.9824832
8.05558E+12,0.80366516,1.6555939,11.7977295,-0.07369995,-0.32954407,-0.10575867,13.6657715,-20.509338,-48.768616,0.607443232,1.43208314,11.8928741,0.015130615,-0.34171142,-0.073654175,14.168396,-19.805298,-48.1790164
8.05559E+12,1.0095367,1.7618561,11.827515,-0.120651245,-0.32847595,-0.13546753,13.6657715,-20.509338,-48.768616,0.720169052,1.53064272,11.8633301,-0.030163574,-0.33420715,-0.089190674,14.0008545,-20.039978,-48.3755496
8.05559E+12,1.2254486,1.8190155,12.075684,-0.17092896,-0.32810974,-0.17358398,13.6657715,-20.509338,-48.768616,0.864630112,1.62550356,11.8827729,-0.076126099,-0.330606078,-0.112689208,13.833313,-20.274658,-48.5720828
8.0556E+12,1.4033203,1.8139648,12.442459,-0.22698975,-0.32946777,-0.22525024,13.957214,-20.217896,-48.86322,1.026834092,1.70942078,11.9914521,-0.124362184,-0.329415892,-0.144537352,13.72406,-20.4510496,-48.7875368
8.0556E+12,1.4813995,1.7970734,12.82486,-0.27534485,-0.3280182,-0.28199768,13.957214,-20.217896,-48.86322,1.184674052,1.76950074,12.1936495,-0.173522951,-0.328723146,-0.18441162,13.7823485,-20.3927612,-48.8064576
8.05561E+12,1.4247589,1.6312103,13.038437,-0.31019592,-0.32250977,-0.34571838,13.957214,-20.217896,-48.86322,1.3088928,1.76462402,12.441791,-0.220822145,-0.327316286,-0.232403562,13.840637,-20.3344728,-48.8253784
8.05561E+12,1.2636108,1.3942261,13.088638,-0.32731628,-0.3058319,-0.41004944,13.957214,-20.217896,-48.86322,1.35970762,1.69109802,12.6940156,-0.262155152,-0.322787476,-0.287319944,13.8989255,-20.2761844,-48.8442992
8.05562E+12,0.97994995,1.1472626,13.105331,-0.33155823,-0.27827454,-0.47123718,14.079285,-19.29779,-48.254395,1.31060789,1.55674744,12.899945,-0.294281006,-0.312820436,-0.346850584,13.9816282,-20.0338748,-48.741455
8.05562E+12,0.5607605,0.80070496,13.084473,-0.32289124,-0.24429321,-0.5254822,14.079285,-19.29779,-48.254395,1.14209593,1.354095472,13.0283478,-0.313461304,-0.295785524,-0.406896976,14.0060424,-19.8498536,-48.61969
8.05563E+12,0.18305969,0.46081543,13.024902,-0.29919434,-0.2050476,-0.5654144,14.079285,-19.29779,-48.254395,0.882427968,1.086843878,13.0683562,-0.318231202,-0.271191404,-0.46358032,14.0304566,-19.6658324,-48.497925
8.05563E+12,-0.11691284,0.13632202,12.845627,-0.26493835,-0.16233826,-0.5787201,14.079285,-19.29779,-48.254395,0.57409362,0.787866222,13.0297942,-0.309179688,-0.239157102,-0.510180664,14.0548708,-19.4818112,-48.37616
8.05564E+12,-0.31399536,-0.06402588,12.540482,-0.21868896,-0.11061096,-0.56573486,14.009094,-18.792725,-47.76306,0.258572388,0.496215826,12.920163,-0.287454224,-0.200112914,-0.541317748,14.0652468,-19.196777,-48.156128
8.05564E+12,-0.47000122,-0.14497375,12.165466,-0.16468811,-0.053329468,-0.5298004,14.009094,-18.792725,-47.76306,-0.031417846,0.237768556,12.73219,-0.2540802,-0.1551239,-0.553030392,14.0512086,-19.095764,-48.057861
8.05565E+12,-0.5218048,-0.18009949,11.656189,-0.10787964,0.001922607,-0.47721863,14.009094,-18.792725,-47.76306,-0.247930906,0.041607666,12.4465332,-0.21107788,-0.105880736,-0.543377678,14.0371704,-18.994751,-47.959594
8.05565E+12,-0.44537354,-0.14299011,11.080566,-0.045425415,0.056121826,-0.40982056,14.009094,-18.792725,-47.76306,-0.373617552,-0.079153442,12.057666,-0.160324095,-0.053646851,-0.51225891,14.0231322,-18.893738,-47.861327
8.05566E+12,-0.2535553,-0.03227234,10.44043,0.02130127,0.100616455,-0.33335876,13.789368,-19.230652,-48.831177,-0.400946044,-0.112872314,11.5766266,-0.103076171,-0.001055908,-0.463186642,13.9651488,-18.8803104,-47.9766834
8.05566E+12,0.04650879,0.19644165,9.677689,0.08744812,0.12773132,-0.2569275,13.789368,-19.230652,-48.831177,-0.328845214,-0.060778808,11.004068,-0.041848755,0.046612548,-0.40142517,13.9212036,-18.9678958,-48.1903068
8.05567E+12,0.37828064,0.5249176,8.897247,0.14956665,0.1412201,-0.18493652,13.789368,-19.230652,-48.831177,-0.159188842,0.073199462,10.3504242,0.021002197,0.085522462,-0.332452394,13.8772584,-19.0554812,-48.4039302
8.05567E+12,0.6657562,0.81111145,8.223373,0.19902039,0.13894653,-0.12495422,13.789368,-19.230652,-48.831177,0.078323358,0.27144165,9.663861,0.082382203,0.112927246,-0.261999512,13.8333132,-19.1430666,-48.6175536
8.05568E+12,0.88127136,1.0530548,7.6022644,0.23205566,0.12133789,-0.08482361,13.220215,-19.702148,-49.0036,0.343652338,0.510650632,8.96820068,0.137878418,0.125970459,-0.197000122,13.6755374,-19.3249512,-48.8656616
8.05568E+12,1.1299591,1.2476196,7.0572815,0.25013733,0.09240723,-0.06185913,13.220215,-19.702148,-49.0036,0.620355218,0.76662902,8.29157098,0.18364563,0.124328614,-0.142700196,13.5617068,-19.4192504,-48.9001462
8.05569E+12,1.345993,1.3778839,6.632492,0.24832153,0.059570313,-0.054611206,13.220215,-19.702148,-49.0036,0.88025206,1.00291747,7.68253158,0.215820312,0.110696413,-0.102236937,13.4478762,-19.5135496,-48.9346308
8.05569E+12,1.489624,1.5519409,6.267639,0.22645569,0.029937744,-0.058441162,13.220215,-19.702148,-49.0036,1.102520732,1.20832213,7.15660998,0.23119812,0.088439941,-0.076937866,13.3340456,-19.6078488,-48.9691154
8.0557E+12,1.5789185,1.6963959,6.059799,0.18276978,0.004745483,-0.076431274,12.979126,-19.822693,-48.768616,1.285153192,1.38537902,6.72389518,0.227947998,0.061599732,-0.067233276,13.1719972,-19.726257,-48.9566032
8.0557E+12,1.5950165,1.7929382,5.9795227,0.12339783,-0.015960693,-0.105911255,12.979126,-19.822693,-48.768616,1.42790222,1.5333557,6.39934684,0.206216432,0.034140015,-0.071450805,13.1237794,-19.750366,-48.9096064
8.05571E+12,1.5638275,1.7632599,6.0129547,0.05505371,-0.031280518,-0.14219666,12.979126,-19.822693,-48.768616,1.5146759,1.63648376,6.19048148,0.167199708,0.009402466,-0.087518311,13.0755616,-19.774475,-48.8626096
8.05571E+12,1.5038757,1.6903992,6.156357,-0.028747559,-0.039352417,-0.18519592,12.979126,-19.822693,-48.768616,1.54625244,1.69898682,6.09525448,0.11178589,-0.01038208,-0.113635254,13.0273438,-19.798584,-48.8156128
8.05572E+12,1.4383545,1.6046143,6.3023224,-0.11192322,-0.038497925,-0.22917175,13.708496,-19.822693,-48.53058,1.53599854,1.7095215,6.10219116,0.044110108,-0.024069214,-0.147781372,13.125,-19.822693,-48.7210088
8.05572E+12,1.3685455,1.5301514,6.554886,-0.1893158,-0.033477783,-0.26919556,13.708496,-19.822693,-48.53058,1.49392394,1.6762726,6.20120856,-0.030307008,-0.031713867,-0.186334229,13.270874,-19.822693,-48.6734016
8.05573E+12,1.3463135,1.4746246,6.924408,-0.25686646,-0.023223877,-0.3026123,13.708496,-19.822693,-48.53058,1.44418334,1.61260988,6.39018562,-0.106359866,-0.033166504,-0.225674438,13.416748,-19.822693,-48.6257944
8.05573E+12,1.3303375,1.3591461,7.168915,-0.3156891,-0.009307861,-0.33247375,13.708496,-19.822693,-48.53058,1.39748534,1.53178712,6.62137768,-0.180508428,-0.028771973,-0.263729856,13.562622,-19.822693,-48.5781872
8.05574E+12,1.2264862,1.1708374,7.5586243,-0.35580444,0.008728027,-0.35728455,14.009094,-20.069885,-48.43445,1.34200744,1.42787476,6.90183114,-0.245919804,-0.019155884,-0.298147582,13.7686156,-19.8721314,-48.511354
8.05574E+12,1.059433,1.0589294,7.8328094,-0.38752747,0.034851074,-0.38104248,14.009094,-20.069885,-48.43445,1.26622314,1.31873778,7.20792854,-0.301040654,-0.004486084,-0.328521728,13.8287352,-19.9215698,-48.492128
8.05575E+12,0.8783722,0.99583435,7.9982147,-0.40107727,0.07077026,-0.39764404,14.009094,-20.069885,-48.43445,1.16818848,1.21187437,7.49659428,-0.343392948,0.016363525,-0.354211424,13.8888548,-19.9710082,-48.472902
8.05575E+12,0.77212524,1.04216,8.145157,-0.40534973,0.11242676,-0.40519714,14.009094,-20.166016,-48.43445,1.053350828,1.12538145,7.74074408,-0.373089602,0.043493652,-0.374728392,13.9489744,-20.0396728,-48.453676
8.05576E+12,0.62734985,1.0358124,8.327652,-0.40498352,0.15713501,-0.40826416,14.009094,-20.166016,-48.43445,0.912753298,1.06071471,7.97249148,-0.390948486,0.076782226,-0.389886474,14.009094,-20.1083374,-48.43445
8.05576E+12,0.5729065,0.9745941,8.535919,-0.3957367,0.2036438,-0.40698242,14.009094,-20.166016,-48.43445,0.782037358,1.02146605,8.16795042,-0.398934938,0.115765381,-0.399826048,14.009094,-20.1275636,-48.43445
8.05577E+12,0.50027466,0.8991699,8.605667,-0.37922668,0.2421112,-0.40286255,14.009094,-20.166016,-48.43445,0.67020569,0.98951415,8.32252194,-0.39727478,0.157217406,-0.404190062,14.009094,-20.1467898,-48.43445
8.05577E+12,0.46368408,0.8964081,8.601929,-0.33685303,0.2774048,-0.39323425,14.009094,-19.631958,-48.693848,0.587268066,0.9696289,8.4432648,-0.384429932,0.198544314,-0.403308104,14.009094,-20.0592044,-48.4863296
8.05578E+12,0.46759033,0.8945923,8.363403,-0.2848816,0.29988098,-0.3821411,14.009094,-19.631958,-48.693848,0.526361084,0.94011536,8.486914,-0.360336306,0.236035158,-0.398696896,14.009094,-19.9523928,-48.5382092
8.05578E+12,0.5241394,0.9241638,8.238586,-0.22032166,0.30950928,-0.37028503,14.009094,-19.631958,-48.693848,0.505718994,0.91778564,8.4691008,-0.323403934,0.266510012,-0.39110107,14.009094,-19.8455812,-48.5900888
8.05579E+12,0.614563,1.0214233,7.9520874,-0.14234924,0.30296326,-0.35920715,14.009094,-19.631958,-48.693848,0.514050294,0.92715148,8.35233448,-0.272726442,0.286373904,-0.381546016,14.009094,-19.7387696,-48.6419684
8.05579E+12,0.7277527,1.1065216,7.619385,-0.055862427,0.27790833,-0.34753418,15.493774,-18.804932,-48.373413,0.559545902,0.96862182,8.15507808,-0.208053591,0.29353333,-0.370480342,14.30603,-19.4665528,-48.629761
8.0558E+12,0.7821045,1.1899872,7.1947327,0.033096313,0.23649597,-0.33836365,15.493774,-18.804932,-48.373413,0.623229986,1.02733764,7.87363882,-0.134063723,0.285351564,-0.359506222,14.602966,-19.3011476,-48.565674
8.0558E+12,0.7717438,1.2762146,6.693985,0.13311768,0.17185974,-0.33595276,15.493774,-18.804932,-48.373413,0.68406068,1.1036621,7.53975522,-0.050463867,0.259747316,-0.350268554,14.899902,-19.1357424,-48.501587
8.05581E+12,0.7084503,1.302597,6.1822205,0.2210083,0.09976196,-0.33979797,15.493774,-18.804932,-48.373413,0.72092286,1.17934874,7.12848212,0.037802125,0.217797852,-0.344171142,15.196838,-18.9703372,-48.4375
8.05582E+12,0.5632477,1.2818298,5.781067,0.28707886,0.029953003,-0.35040283,15.896606,-18.621826,-48.2666,0.7106598,1.23143004,6.69427804,0.123687745,0.163195801,-0.342410278,15.5743404,-18.7683108,-48.3520504
8.05582E+12,0.45443726,1.2711029,5.59198,0.32374573,-0.028381348,-0.3605652,15.896606,-18.621826,-48.2666,0.655996712,1.2643463,6.28879704,0.199609377,0.101937865,-0.345016482,15.6549068,-18.7316896,-48.3306878
8.05583E+12,0.3933258,1.2349854,5.555664,0.32992554,-0.06652832,-0.3687744,15.896606,-18.621826,-48.2666,0.578240972,1.27334594,5.9609833,0.258975222,0.041333007,-0.351098632,15.7354732,-18.6950684,-48.3093252
8.05583E+12,0.33032227,1.2341461,5.7233276,0.3120575,-0.08407593,-0.37094116,15.896606,-18.621826,-48.2666,0.489956666,1.26493224,5.76685182,0.294763186,-0.009854127,-0.358096312,15.8160396,-18.6584472,-48.2879626
8.05584E+12,0.22528076,1.2094574,5.9013977,0.27534485,-0.079452515,-0.37051392,15.603638,-18.914795,-48.2666,0.393322758,1.24630432,5.71068726,0.305630496,-0.045697022,-0.364239502,15.8380124,-18.6804198,-48.2666
8.05584E+12,0.10066223,1.1874695,5.9996643,0.2361908,-0.054275513,-0.36805725,15.603638,-18.914795,-48.2666,0.300805664,1.22743226,5.75440672,0.295452884,-0.062542725,-0.367770386,15.7794188,-18.7390136,-48.2666
8.05585E+12,-0.009307861,1.2107544,6.082962,0.20335388,-0.016342163,-0.3627472,15.603638,-18.914795,-48.2666,0.20805664,1.21536256,5.85260312,0.271374514,-0.060134888,-0.368206786,15.7208252,-18.7976074,-48.2666
8.05585E+12,-0.064834595,1.2254944,6.2248383,0.18205261,0.021026611,-0.3547058,15.603638,-18.914795,-48.2666,0.116424561,1.21346436,5.98643798,0.241799928,-0.042623902,-0.365393066,15.6622316,-18.8562012,-48.2666
8.05586E+12,-0.0980072,1.1976471,6.3384247,0.173172,0.05091858,-0.34420776,15.553284,-18.08319,-47.68982,0.030758667,1.20616456,6.1094574,0.214022828,-0.015625,-0.360046386,15.5935672,-18.748474,-48.151244
8.05586E+12,-0.17562866,1.2159424,6.494568,0.17601013,0.07661438,-0.33171082,15.553284,-18.08319,-47.68982,-0.049423217,1.20746156,6.22809146,0.194155884,0.015588379,-0.352285766,15.5834964,-18.582153,-48.035888
8.05587E+12,-0.24137878,1.2565613,6.729706,0.18963623,0.10154724,-0.31755066,15.553284,-18.08319,-47.68982,-0.117831419,1.22127992,6.3740998,0.18484497,0.04675293,-0.342184448,15.5734256,-18.415832,-47.920532
8.05587E+12,-0.30917358,1.2273407,6.9869843,0.20840454,0.12495422,-0.30155945,15.553284,-18.08319,-47.68982,-0.177804563,1.22459718,6.55490426,0.185855102,0.075012206,-0.329946898,15.5633548,-18.249511,-47.805176
8.05588E+12,-0.33206177,1.1649475,7.1264496,0.23161316,0.14785767,-0.28225708,15.553284,-17.93518,-47.595215,-0.231249998,1.2124878,6.73522652,0.195767212,0.100378418,-0.315457154,15.553284,-18.053588,-47.670899
8.05588E+12,-0.3488617,1.1340332,7.0953674,0.26187134,0.1714325,-0.25958252,15.553284,-17.93518,-47.595215,-0.281420898,1.19976502,6.88661506,0.21350708,0.124481202,-0.298532106,15.553284,-18.023986,-47.651978
8.05589E+12,-0.36238098,1.182251,7.0700226,0.29832458,0.19119263,-0.23246765,15.553284,-17.93518,-47.595215,-0.318771362,1.19302674,7.00170598,0.23796997,0.147396852,-0.278683472,15.553284,-17.994384,-47.633057
8.05589E+12,-0.2944336,1.286499,7.0125732,0.34327698,0.19894409,-0.19950867,15.553284,-17.93518,-47.595215,-0.329382326,1.19901428,7.05827942,0.26869812,0.166876222,-0.255075074,15.553284,-17.964782,-47.614136
8.0559E+12,-0.21438599,1.3224182,6.925995,0.3921051,0.18959045,-0.16493225,15.867615,-18.881226,-48.825073,-0.310424808,1.21802978,7.04608156,0.305438232,0.179803468,-0.227749634,15.6161502,-18.1243892,-47.8411866
8.0559E+12,-0.21151733,1.3248596,6.77861,0.44091797,0.17019653,-0.13182068,15.867615,-18.881226,-48.825073,-0.28631592,1.2500122,6.97651364,0.347299194,0.18427124,-0.197662354,15.6790164,-18.3135984,-48.0871582
8.05591E+12,-0.21351624,1.3964844,6.5869904,0.48324585,0.14445496,-0.10050964,15.867615,-18.881226,-48.825073,-0.259246828,1.30250244,6.87483824,0.391574096,0.178875732,-0.165847778,15.7418826,-18.5028076,-48.3331298
8.05591E+12,-0.10990906,1.4902802,6.447983,0.51708984,0.11628723,-0.07066345,15.867615,-18.881226,-48.825073,-0.208752444,1.36410828,6.75043032,0.435327148,0.163894652,-0.133486938,15.8047488,-18.6920168,-48.5791014
8.05592E+12,0.021148682,1.6726532,6.5219727,0.5394287,0.087905884,-0.042007446,15.896606,-18.649292,-46.458435,-0.145635988,1.44133912,6.65231022,0.474557492,0.141687011,-0.101986693,15.8734132,-18.8348392,-48.3517454
8.05592E+12,0.13685608,1.8538666,6.5274353,0.55104065,0.057052612,-0.013626099,15.896606,-18.649292,-46.458435,-0.075387574,1.5476288,6.57259828,0.506344602,0.115179443,-0.071725463,15.8792114,-18.7884524,-47.8784178
8.05593E+12,0.2710266,2.0585632,6.6090546,0.55274963,0.028747559,0.007873535,15.896606,-18.649292,-46.458435,0.021121212,1.69436952,6.5386872,0.528710934,0.086889649,-0.04378662,15.8850096,-18.7420656,-47.4050902
8.05593E+12,0.3751526,2.1474915,6.6917267,0.5464783,0.007644653,0.018615723,15.896606,-18.649292,-46.458435,0.13885498,1.84457094,6.55963446,0.541357424,0.059527588,-0.019961547,15.8908078,-18.6956788,-46.9317626
8.05594E+12,0.4827118,2.221405,7.044632,0.5277405,-0.003753662,0.0209198,15.896606,-18.621826,-46.255493,0.257379152,1.9907959,6.67896426,0.543487556,0.035519409,-0.001644897,15.896606,-18.6437988,-46.4178466
8.05594E+12,0.52742004,2.3084106,7.3995056,0.49479675,-0.002243042,0.014465332,15.896606,-18.621826,-46.255493,0.358633424,2.11794738,6.85447084,0.534561166,0.017489624,0.009649658,15.896606,-18.6383056,-46.3772582
8.05595E+12,0.5950928,2.3030548,7.7323,0.45202637,0.015258789,0.005477905,15.896606,-18.621826,-46.255493,0.450280768,2.20778502,7.09544378,0.51475831,0.009130859,0.013470459,15.896606,-18.6328124,-46.3366698
8.05595E+12,0.5066681,2.3128662,8.050262,0.40133667,0.048095703,-0.004928589,15.896606,-18.621826,-46.255493,0.497409068,2.25864562,7.38368526,0.484475718,0.013000488,0.010910034,15.896606,-18.6273192,-46.2960814
8.05596E+12,0.35058594,2.3694458,8.416443,0.3539276,0.08929443,-0.01789856,16.914368,-19.981384,-50.23346,0.492495736,2.30303648,7.72862852,0.445965578,0.029330444,0.003607178,16.1001584,-18.8937376,-47.0510864
8.05596E+12,0.12394714,2.3419495,8.834946,0.30581665,0.13926697,-0.027893066,16.914368,-19.981384,-50.23346,0.420742804,2.32714538,8.08669132,0.401580808,0.05793457,-0.006155396,16.3037108,-19.1656492,-47.8466798
8.05597E+12,-0.13023376,2.3396454,9.227432,0.25901794,0.1925354,-0.03555298,16.914368,-19.981384,-50.23346,0.289212044,2.33339234,8.4522766,0.354425046,0.096890258,-0.016159058,16.5072632,-19.4375608,-48.6422732
8.05597E+12,-0.20698547,2.2448425,9.608917,0.25901794,0.1925354,-0.03555298,16.914368,-19.981384,-50.23346,0.12879639,2.32174988,8.8276,0.31582336,0.132345581,-0.024365235,16.7108156,-19.7094724,-49.4378666
8.05598E+12,-0.3821411,2.1122284,9.974289,0.18312073,0.29148865,-0.028289795,16.075134,-19.483948,-47.781372,-0.04896545,2.28162232,9.2124054,0.272180172,0.18102417,-0.029037476,16.7465212,-19.8818968,-49.7430424
8.05598E+12,-0.5396576,1.9894714,10.193192,0.15408325,0.3368683,-0.013702393,16.075134,-19.483948,-47.781372,-0.227014158,2.20562744,9.5677552,0.232211302,0.230538944,-0.028198243,16.5786744,-19.7824096,-49.2526248
8.05599E+12,-0.6281738,1.9180298,10.571503,0.13522339,0.36886597,0.010360718,16.075134,-19.483948,-47.781372,-0.377438346,2.1208435,9.9150666,0.19809265,0.276458744,-0.020547486,16.4108276,-19.6829224,-48.7622072
8.05599E+12,-0.65771484,2.0454865,10.898239,0.12748718,0.37773132,0.043701172,16.075134,-19.483948,-47.781372,-0.482934562,2.06201172,10.249228,0.171786498,0.313497928,-0.004696656,16.2429808,-19.5834352,-48.2717896
8.056E+12,-0.51626587,2.1220703,11.127136,0.13742065,0.358963,0.081222534,16.075134,-19.483948,-47.781372,-0.544790642,2.03745728,10.5528718,0.14746704,0.346783448,0.018658447,16.075134,-19.483948,-47.781372
8.056E+12,-0.40881348,2.1974487,11.415787,0.16304016,0.30828857,0.12020874,16.075134,-19.483948,-47.781372,-0.550125118,2.05450134,10.8411714,0.143450926,0.350143432,0.048358154,16.075134,-19.483948,-47.781372
8.05601E+12,-0.32347107,2.2518005,11.737305,0.19676208,0.23797607,0.15090942,16.075134,-19.483948,-47.781372,-0.506887812,2.10696716,11.149994,0.151986692,0.330364986,0.081280517,16.075134,-19.483948,-47.781372
8.05601E+12,-0.16003418,2.3201141,11.978165,0.23861694,0.14170837,0.18185425,16.099548,-19.52362,-47.76764,-0.413259888,2.18738402,11.4313264,0.172665402,0.284933466,0.115579223,16.0800168,-19.4918824,-47.7786256
8.05602E+12,0.023544312,2.3704987,12.363388,0.27096558,0.05078125,0.20397949,16.099548,-19.52362,-47.76764,-0.277008058,2.25238646,11.7243562,0.201361082,0.219543452,0.147634887,16.0848996,-19.4998168,-47.7758792
8.05602E+12,0.18632507,2.484558,12.725143,0.29170227,-0.026855469,0.22229004,16.099548,-19.52362,-47.76764,-0.13648987,2.324884,12.0439576,0.232217406,0.142379758,0.175848388,16.0897824,-19.5077512,-47.7731328
8.05603E+12,0.2441101,2.573471,13.100739,0.29989624,-0.08708191,0.23468018,16.099548,-19.52362,-47.76764,-0.005905154,2.40008846,12.380948,0.259588622,0.063305662,0.198742676,16.0946652,-19.5156856,-47.7703864
8.05603E+12,0.16622925,2.5622253,13.455551,0.29914856,-0.13208008,0.23942566,16.905212,-20.703125,-47.8714,0.09203491,2.46217342,12.7245972,0.280065918,-0.010705568,0.216445924,16.2606808,-19.759521,-47.788392
8.05604E+12,0.029663086,2.4618988,13.926773,0.29356384,-0.16651917,0.23701477,16.905212,-20.703125,-47.8714,0.129974364,2.49053036,13.1143188,0.291055298,-0.072351076,0.227478028,16.4218136,-19.995422,-47.809144
8.05604E+12,-0.024002075,2.346817,14.434708,0.28701782,-0.19198608,0.23582458,16.905212,-20.703125,-47.8714,0.120465086,2.48579402,13.5285828,0.294265746,-0.120904542,0.233847046,16.5829464,-20.231323,-47.829896
8.05605E+12,0.044937134,2.2420502,14.850937,0.2831726,-0.1974945,0.24241638,16.905212,-20.703125,-47.8714,0.092187499,2.43729246,13.9537416,0.292559812,-0.155032348,0.237872314,16.7440792,-20.467224,-47.850648
8.05605E+12,0.16168213,2.2161255,15.232025,0.28251648,-0.17481995,0.2570343,16.583252,-21.025085,-46.925354,0.075701905,2.36582336,14.3799988,0.28908386,-0.172579956,0.242343138,16.84082,-20.767517,-47.6821908
8.05606E+12,0.23498535,2.2029572,15.523285,0.28160095,-0.11891174,0.27694702,16.583252,-21.025085,-46.925354,0.089453125,2.29396974,14.7935456,0.285574338,-0.169946288,0.24984741,16.776428,-20.831909,-47.4929816
8.05606E+12,0.28837585,2.1979675,15.584335,0.28038025,-0.030761719,0.29632568,16.583252,-21.025085,-46.925354,0.141195678,2.24118348,15.125058,0.28293762,-0.142794798,0.261709592,16.712036,-20.896301,-47.3037724
8.05607E+12,0.31913757,2.230072,15.383347,0.28129578,0.08943176,0.31271362,16.583252,-21.025085,-46.925354,0.209823607,2.21783448,15.3147858,0.281793212,-0.08651123,0.2770874,16.647644,-20.960693,-47.1145632
8.05607E+12,0.35131836,2.3168945,15.074524,0.28411865,0.24006653,0.32867432,16.564941,-21.118164,-46.798706,0.271099852,2.23280334,15.3595032,0.281982422,0.001000976,0.294338988,16.5795898,-21.0437008,-46.9000244
8.05608E+12,0.4801178,2.4151306,14.627945,0.2879486,0.3889618,0.34228516,16.564941,-21.118164,-46.798706,0.334786986,2.27260436,15.2386872,0.283068846,0.113757326,0.31138916,16.5759276,-21.0623166,-46.8746948
8.05608E+12,0.633255,2.475647,14.004715,0.29115295,0.5274811,0.35316467,16.564941,-21.118164,-46.798706,0.414440916,2.32714232,14.9349732,0.284979246,0.243035894,0.32663269,16.5722654,-21.0809324,-46.8493652
8.05609E+12,0.7092285,2.5268707,13.249985,0.29455566,0.6462555,0.35873413,16.564941,-21.118164,-46.798706,0.498611446,2.39292296,14.4681032,0.287814328,0.378439338,0.33911438,16.5686032,-21.0995482,-46.8240356
8.05609E+12,0.73550415,2.6030426,12.409454,0.29580688,0.7346344,0.35614014,16.30249,-22.036743,-45.81604,0.581884762,2.46751708,13.8733246,0.290716548,0.507479866,0.347799684,16.5124508,-21.3018798,-46.6021728
8.0561E+12,0.7465515,2.7273407,11.577911,0.2884674,0.7955017,0.34701538,16.30249,-22.036743,-45.81604,0.66093139,2.54960632,13.174002,0.291586298,0.6185669,0.351467896,16.4599606,-21.4855956,-46.4056396
8.0561E+12,0.80218506,2.8598022,10.89917,0.26649475,0.82099915,0.3330078,16.30249,-22.036743,-45.81604,0.725344842,2.63854064,12.428247,0.287295528,0.70497437,0.349612424,16.4074704,-21.6693114,-46.2091064
8.05611E+12,0.8529968,3.0390778,10.404327,0.22990417,0.8070984,0.3148346,16.30249,-22.036743,-45.81604,0.769293202,2.7512268,11.7081694,0.275045772,0.76089783,0.34194641,16.3549802,-21.8530272,-46.0125732
8.05611E+12,0.8726654,3.2007294,10.07579,0.18115234,0.7564392,0.28570557,15.553284,-23.085022,-46.255493,0.801980582,2.88599854,11.0733304,0.252365108,0.78293457,0.327340698,16.1526488,-22.2463988,-45.9039306
8.05612E+12,0.8067169,3.2804565,9.869049,0.122665405,0.6737366,0.24049377,15.553284,-23.085022,-46.255493,0.816223132,3.02148132,10.5652494,0.217736813,0.77075501,0.304211424,16.0028076,-22.4560546,-45.9918212
8.05612E+12,0.7281952,3.223465,9.812027,0.058120728,0.57366943,0.18702698,15.553284,-23.085022,-46.255493,0.812551872,3.12070618,10.2120726,0.171667479,0.726388556,0.272213744,15.8529664,-22.6657104,-46.0797118
8.05613E+12,0.6248779,3.105774,9.8558655,-0.018508911,0.44891357,0.12362671,15.553284,-23.085022,-46.255493,0.77709044,3.16990054,10.0034117,0.114666746,0.65197144,0.230337526,15.7031252,-22.8753662,-46.1676024
8.05613E+12,0.44361877,2.9310913,10.173187,-0.09939575,0.3179779,0.056900024,15.855408,-22.903442,-46.195984,0.695214834,3.14830324,9.9571837,0.048806762,0.55414734,0.178750611,15.6137088,-23.048706,-46.2435912
8.05614E+12,0.29273987,2.7152405,10.764084,-0.18457031,0.19302368,-0.007217407,15.855408,-22.903442,-46.195984,0.579229728,3.05120546,10.0948425,-0.024337768,0.441464236,0.120166015,15.6741336,-23.01239,-46.2316894
8.05614E+12,0.20674133,2.5185394,11.5589905,-0.2781067,0.08786011,-0.06628418,15.855408,-22.903442,-46.195984,0.459234614,2.89882204,10.4328308,-0.104492189,0.324288938,0.058810425,15.7345584,-22.976074,-46.2197876
8.05615E+12,0.06628418,2.269928,12.393127,-0.3746643,0.014755249,-0.11677551,15.855408,-22.903442,-46.195984,0.32685241,2.70811464,10.9490508,-0.191049194,0.212506102,-0.001950073,15.7949832,-22.939758,-46.2078858
8.05615E+12,-0.2467041,1.9819794,13.09375,-0.4593506,-0.022262573,-0.1613617,17.471313,-22.325134,-45.854187,0.15253601,2.48335572,11.5966277,-0.279217532,0.118270873,-0.058947755,16.178589,-22.7877804,-46.1276246
8.05616E+12,-0.6835327,1.7196198,13.707321,-0.54019165,-0.033309937,-0.20703125,17.471313,-22.325134,-45.854187,-0.072894284,2.24106142,12.3034545,-0.367376712,0.048013306,-0.111734009,16.50177,-22.6721188,-46.0592652
8.05616E+12,-1.1164856,1.3509064,14.393417,-0.6005249,-0.02017212,-0.24221802,17.471313,-22.325134,-45.854187,-0.354739378,1.9681946,13.0293211,-0.45056763,0.005374146,-0.158734132,16.824951,-22.5564572,-45.9909058
8.05617E+12,-1.5182953,1.0512085,14.943237,-0.63635254,0.004226685,-0.26506042,17.471313,-22.325134,-45.854187,-0.699746704,1.67472842,13.7061704,-0.522216798,-0.011352539,-0.19848938,17.148132,-22.4407956,-45.9225464
8.05617E+12,-1.8642578,0.57676697,15.385178,-0.64959717,0.04182434,-0.2693634,18.299866,-23.428345,-45.585632,-1.0858551,1.336096214,14.3045806,-0.577203372,-0.005938721,-0.229006958,17.6370236,-22.5457762,-45.800476
8.05618E+12,-2.1895294,0.24316406,15.450699,-0.6351929,0.0967865,-0.2546997,18.299866,-23.428345,-45.585632,-1.47442016,0.988333146,14.7759704,-0.612371832,0.017871094,-0.247674558,17.8027342,-22.7664184,-45.746765
8.05618E+12,-2.4328766,0.009948731,15.172806,-0.60198975,0.164505,-0.22349548,18.299866,-23.428345,-45.585632,-1.82428894,0.646398932,15.0690674,-0.624731452,0.057434081,-0.250967404,17.9684448,-22.9870606,-45.693054
8.05619E+12,-2.5327911,-0.0499115,14.727493,-0.54797363,0.25100708,-0.16960144,18.38379,-22.833252,-45.50171,-2.10755004,0.366235352,15.1358826,-0.614221198,0.111669921,-0.236444088,18.1509402,-23.0886842,-45.6225586
8.05619E+12,-2.4565735,-2.29E-04,14.137329,-0.48242188,0.3266449,-0.10328674,18.38379,-22.833252,-45.50171,-2.29520568,0.155947876,14.974701,-0.583435066,0.176153564,-0.204089352,18.3334356,-23.1903078,-45.5520632
8.0562E+12,-2.4464417,0.03627014,13.5278015,-0.40567017,0.3738098,-0.033493042,18.38379,-22.833252,-45.50171,-2.41164246,0.04784851,14.6032257,-0.534649666,0.242550656,-0.15691528,18.3502204,-23.0712892,-45.5352788
8.0562E+12,-2.3168488,0.10151672,12.730484,-0.3131256,0.37971497,0.032836914,18.38379,-22.833252,-45.50171,-2.43710634,0.019519042,14.0591827,-0.470236206,0.29913635,-0.099407958,18.3670052,-22.9522706,-45.5184944
8.05621E+12,-2.1134796,0.09132385,11.928329,-0.20674133,0.34843445,0.09399414,18.50586,-20.79773,-45.736694,-2.37322694,0.035794066,13.4102873,-0.391186522,0.33592224,-0.035910034,18.408204,-22.4261476,-45.5487068
8.05621E+12,-1.8556976,0.2532196,11.067337,-0.10610962,0.29562378,0.14653015,18.50586,-20.79773,-45.736694,-2.23780824,0.096420286,12.6782561,-0.30281372,0.34484558,0.027316284,18.432618,-22.0190432,-45.5957036
8.05622E+12,-1.6065216,0.48875427,10.383545,-0.004776001,0.21287537,0.19470215,18.50586,-20.79773,-45.736694,-2.06779786,0.194216916,11.9274993,-0.207284544,0.322091674,0.086914062,18.457032,-21.6119388,-45.6427004
8.05622E+12,-1.2577057,0.72566223,9.682297,0.07521057,0.11639404,0.22718811,18.50586,-20.79773,-45.736694,-1.83005066,0.332095334,11.1583984,-0.111108396,0.270608522,0.139050293,18.481446,-21.2048344,-45.6896972
8.05623E+12,-0.92607117,0.8943176,9.066269,0.14349365,0.009017944,0.24549866,18.128967,-20.166016,-47.0932,-1.551895134,0.49065551,10.4255554,-0.019784546,0.196469117,0.181582642,18.4304814,-20.6713872,-46.0079952
8.05623E+12,-0.88578796,0.99279785,8.579025,0.19773865,-0.10379028,0.24516296,18.128967,-20.166016,-47.0932,-1.306356806,0.67095031,9.7556946,0.06111145,0.106024171,0.211816406,18.3551028,-20.5450444,-46.2792964
8.05624E+12,-1.0155945,1.0437775,8.193527,0.23600769,-0.21800232,0.22457886,18.128967,-20.166016,-47.0932,-1.138336186,0.82906189,9.1809326,0.129534912,0.003298951,0.227426148,18.2797242,-20.4187016,-46.5505976
8.05624E+12,-1.3405457,1.0354614,7.788788,0.26089478,-0.32766724,0.19644165,18.128967,-20.166016,-47.0932,-1.085141006,0.938403316,8.6619812,0.182669068,-0.104809571,0.227774048,18.2043456,-20.2923588,-46.8218988
8.05625E+12,-1.7211151,0.8362274,7.359436,0.27497864,-0.4351654,0.16496277,18.128967,-19.839478,-46.56067,-1.177822886,0.96051635,8.197409,0.222622682,-0.215121459,0.21532898,18.128967,-20.1007084,-46.986694
8.05625E+12,-1.8181458,0.6520691,6.7977753,0.2720642,-0.5150757,0.14524841,18.128967,-19.839478,-46.56067,-1.356237812,0.91206665,7.74371026,0.248336792,-0.319940188,0.19527893,18.128967,-20.0354008,-46.880188
8.05626E+12,-1.649704,0.60498047,6.532196,0.2454834,-0.5648804,0.14234924,18.128967,-19.839478,-46.56067,-1.50902102,0.834503174,7.33434446,0.257885742,-0.412158212,0.174716186,18.128967,-19.9700932,-46.773682
8.05626E+12,-1.4893036,0.5784149,6.564987,0.18626404,-0.5839081,0.15080261,18.128967,-19.839478,-46.56067,-1.60376284,0.741430654,7.00863646,0.247937012,-0.485339368,0.159960936,18.128967,-19.9047856,-46.667176
8.05627E+12,-1.4064178,0.5782623,6.7786713,0.100234985,-0.5794983,0.15914917,18.47229,-19.711304,-45.86487,-1.61693726,0.649990834,6.80661312,0.215805053,-0.53570558,0.15250244,18.1976316,-19.8138432,-46.42151
8.05627E+12,-1.3098907,0.5339813,7.073059,-0.002807617,-0.5487976,0.16435242,18.47229,-19.711304,-45.86487,-1.53469238,0.589541614,6.74933772,0.160247802,-0.55843202,0.15238037,18.2662962,-19.7882084,-46.28235
8.05628E+12,-1.2042084,0.45700073,7.1989136,-0.11222839,-0.48916626,0.1687622,18.47229,-19.711304,-45.86487,-1.4119049,0.55052794,6.82956538,0.083389284,-0.553250132,0.157083128,18.3349608,-19.7625736,-46.14319
8.05628E+12,-1.0693207,0.391037,7.288147,-0.2053833,-0.41481018,0.17370605,18.47229,-19.711304,-45.86487,-1.29582824,0.507739246,6.98075558,-0.006784056,-0.523236088,0.16335449,18.4036254,-19.7369388,-46.00403
8.05629E+12,-0.9448395,0.38409424,7.3704376,-0.28326416,-0.33488464,0.17648315,19.158936,-20.852661,-46.757507,-1.18693542,0.468875114,7.1418457,-0.100689696,-0.473431396,0.168490598,18.6096192,-19.9395754,-46.0433974
8.05629E+12,-0.89463806,0.44206238,7.5071716,-0.34432983,-0.26339722,0.17250061,19.158936,-20.852661,-46.757507,-1.084579472,0.44163513,7.28754576,-0.189602659,-0.41021118,0.171160886,18.7469484,-20.1678468,-46.2219248
8.0563E+12,-0.82910156,0.446167,7.755905,-0.385437,-0.21234131,0.16081238,19.158936,-20.852661,-46.757507,-0.988421644,0.42407227,7.42411496,-0.266128536,-0.342919922,0.170452878,18.8842776,-20.3961182,-46.4004522
8.0563E+12,-0.8075714,0.2965393,7.830658,-0.4028015,-0.17938232,0.14376831,19.158936,-20.852661,-46.757507,-0.909094244,0.391979984,7.55046384,-0.324243158,-0.280963134,0.1654541,19.0216068,-20.6243896,-46.5789796
8.05631E+12,-0.8923645,0.119262695,7.694275,-0.39027405,-0.15766907,0.12452698,18.492126,-21.51947,-46.366882,-0.873703004,0.337625123,7.63168944,-0.361221308,-0.229534912,0.155618286,19.025574,-20.9860228,-46.679382
8.05631E+12,-1.039917,0.021820068,7.466797,-0.35424805,-0.13508606,0.1118927,18.492126,-21.51947,-46.366882,-0.892718504,0.265170289,7.65096132,-0.375418086,-0.189575196,0.142700196,18.892212,-21.1193846,-46.601257
8.05632E+12,-1.1770935,-0.006668091,7.2879944,-0.30789185,-0.109313965,0.10864258,18.492126,-21.51947,-46.366882,-0.949209592,0.175424194,7.60712588,-0.36813049,-0.158758545,0.12992859,18.75885,-21.2527464,-46.523132
8.05632E+12,-1.1873627,0.017471313,7.1574554,-0.25912476,-0.08735657,0.11433411,18.492126,-21.51947,-46.366882,-1.02086182,0.089685057,7.48743596,-0.342868042,-0.133761597,0.120632936,18.625488,-21.3861082,-46.445007
8.05633E+12,-1.1709747,0.09164429,6.840317,-0.20689392,-0.07136536,0.12809753,17.718506,-21.740723,-45.481873,-1.09354248,0.048706055,7.28936776,-0.303686526,-0.112158205,0.11749878,18.337402,-21.5637206,-46.1898802
8.05633E+12,-1.0628204,0.1867218,6.3727417,-0.14178467,-0.06010437,0.15037537,17.718506,-21.740723,-45.481873,-1.12763366,0.062197876,7.0250611,-0.25398865,-0.092645265,0.122668458,18.182678,-21.6079712,-46.0128784
8.05634E+12,-0.907959,0.28186035,5.901169,-0.06956482,-0.06210327,0.1765747,17.718506,-21.740723,-45.481873,-1.10124206,0.114205932,6.7119355,-0.197052004,-0.078048707,0.135604858,18.027954,-21.6522218,-45.8358766
8.05634E+12,-0.70339966,0.35650635,5.5874023,-0.001373291,-0.07434082,0.20202637,17.718506,-21.740723,-45.481873,-1.006503292,0.186840821,6.37181708,-0.135748292,-0.071054078,0.154281616,17.87323,-21.6964724,-45.6588748
8.05635E+12,-0.5760956,0.47669983,5.2868958,0.057876587,-0.08773804,0.2238617,18.128967,-20.509338,-45.082092,-0.884249872,0.278686524,5.99770516,-0.072348023,-0.071130372,0.176187134,17.8005982,-21.494446,-45.4019168
8.05635E+12,-0.49635315,0.5385742,4.891388,0.10444641,-0.09310913,0.23776245,18.128967,-20.509338,-45.082092,-0.749325562,0.368072506,5.60791936,-0.010079957,-0.075479126,0.198120118,17.8826904,-21.248169,-45.3219606
8.05636E+12,-0.31254578,0.6773224,4.481186,0.13323975,-0.08303833,0.24743652,18.128967,-20.509338,-45.082092,-0.599270638,0.466192626,5.22960822,0.044924927,-0.080065918,0.217532348,17.9647826,-21.001892,-45.2420044
8.05636E+12,-0.07434082,0.8686371,4.1424103,0.14923096,-0.055648804,0.25680542,18.128967,-20.509338,-45.082092,-0.432547002,0.583547976,4.87785648,0.088684083,-0.078775025,0.233578492,18.0468748,-20.755615,-45.1620482
8.05637E+12,-0.11581421,0.9630432,3.7897797,0.14552307,-0.017333984,0.25912476,17.185974,-19.725037,-46.00067,-0.315029912,0.704855346,4.51833196,0.118063355,-0.067373658,0.24499817,17.9403684,-20.3524778,-45.2658076
8.05637E+12,-0.2637329,0.9971161,3.3305206,0.123565674,0.031692505,0.253479,17.185974,-19.725037,-46.00067,-0.252557372,0.8089386,4.12705692,0.131201173,-0.043487549,0.25092163,17.7517698,-20.1956176,-45.4495232
8.05638E+12,-0.17033386,1.0893097,3.1091766,0.08782959,0.08668518,0.24497986,17.185974,-19.725037,-46.00067,-0.187353514,0.9190857,3.77061464,0.127877809,-0.007528687,0.252365112,17.5631712,-20.0387574,-45.6332388
8.05638E+12,0.018356323,1.2470245,3.2034302,0.038528442,0.13845825,0.2402649,17.185974,-19.725037,-46.00067,-0.121173093,1.03302612,3.51506348,0.108935547,0.036770629,0.250930788,17.3745726,-19.8818972,-45.8169544
8.05639E+12,0.34797668,1.4527893,3.0635834,-0.014312744,0.16726685,0.23617554,16.473389,-19.522095,-46.539307,-0.036709593,1.14985656,3.2992981,0.076226806,0.08135376,0.246804812,17.043457,-19.6844486,-46.1083974
8.05639E+12,0.47364807,1.6996002,3.1017761,-0.068573,0.18495178,0.22833252,16.473389,-19.522095,-46.539307,0.081182863,1.29716796,3.16169738,0.033407592,0.121810913,0.240646364,16.90094,-19.6438602,-46.2161248
8.0564E+12,0.44989014,1.7277069,3.2016907,-0.113204956,0.19128418,0.20321655,16.473389,-19.522095,-46.539307,0.223907471,1.44328612,3.1359314,-0.013946534,0.153729248,0.230593874,16.758423,-19.6032718,-46.3238522
8.0564E+12,0.2781372,1.7178802,3.4447021,-0.15470886,0.17623901,0.16239929,16.926575,-20.33844,-45.9198,0.313601683,1.56900022,3.2030365,-0.062454224,0.171640014,0.21407776,16.7065432,-19.7259524,-46.3076782
8.05641E+12,0.10774231,1.596756,3.6008759,-0.18785095,0.14466858,0.12034607,16.926575,-20.33844,-45.9198,0.33147888,1.63894652,3.28252564,-0.107730102,0.17288208,0.190093994,16.6546634,-19.848633,-46.2915042
8.05641E+12,-0.11552429,1.511734,3.9459991,-0.21109009,0.11260986,0.08488464,16.926575,-20.33844,-45.9198,0.238778686,1.65073546,3.45900878,-0.147085571,0.161950682,0.159835814,16.7453006,-20.011902,-46.1676028
8.05642E+12,-0.47042847,1.43927,4.424118,-0.22488403,0.07662964,0.056777954,16.926575,-20.33844,-45.9198,0.049963378,1.59866942,3.72347716,-0.178347777,0.140286254,0.125524901,16.8359378,-20.175171,-46.0437014
8.05642E+12,-0.771225,1.2848358,4.88002,-0.22451782,0.023773193,0.038253784,16.835022,-20.791626,-46.53778,-0.19425965,1.5100952,4.05914302,-0.20061035,0.106784057,0.092532348,16.9082644,-20.4290772,-46.043396
8.05643E+12,-0.9735565,1.1335602,5.400528,-0.21191406,-0.02609253,0.03274536,16.835022,-20.791626,-46.53778,-0.44459839,1.3932312,4.4503082,-0.21205139,0.066317749,0.066601562,16.8899538,-20.5197144,-46.166992
8.05643E+12,-1.0096588,1.0335388,5.9543,-0.18791199,-0.07180786,0.041427612,16.835022,-20.791626,-46.53778,-0.668078612,1.28058776,4.92099302,-0.212063598,0.023022461,0.05081787,16.8716432,-20.6103516,-46.290588
8.05644E+12,-0.99064636,1.0205688,6.1832275,-0.15200806,-0.1085968,0.06222534,16.835022,-20.791626,-46.53778,-0.843103026,1.18235472,5.3684387,-0.200247192,-0.021218871,0.04628601,16.8533326,-20.7009888,-46.414184
8.05644E+12,-0.8486786,1.0730743,6.4565887,-0.10713196,-0.13215637,0.0921936,17.033386,-20.733643,-46.458435,-0.918753052,1.10911558,5.77493284,-0.176696778,-0.062976073,0.053369139,16.8746948,-20.7800294,-46.521911
8.05645E+12,-0.69506836,1.1169281,6.630127,-0.056121826,-0.14613342,0.12327576,17.033386,-20.733643,-46.458435,-0.903521724,1.07553404,6.12495424,-0.143017579,-0.096957396,0.070373534,16.9143676,-20.7684328,-46.506042
8.05645E+12,-0.61735535,1.1234436,6.689743,0.005905151,-0.1568451,0.15080261,17.033386,-20.733643,-46.458435,-0.832281494,1.07351072,6.38279724,-0.099453737,-0.12310791,0.093984984,16.9540404,-20.7568362,-46.490173
8.05646E+12,-0.5583496,1.1719208,6.5920258,0.06355286,-0.1558075,0.17111206,17.033386,-20.733643,-46.458435,-0.742019654,1.10118712,6.5103424,-0.049160767,-0.139907838,0.119921874,16.9937132,-20.7452396,-46.474304
8.05646E+12,-0.40272522,1.3696289,6.2445984,0.10942078,-0.13645935,0.18714905,17.269897,-20.33844,-45.9198,-0.624435426,1.17099914,6.52261658,0.003125001,-0.145480348,0.144906616,17.0806882,-20.6546024,-46.350708
8.05647E+12,-0.17451477,1.6456146,5.998886,0.13409424,-0.10083008,0.20132446,17.269897,-20.33844,-45.9198,-0.48960266,1.2855072,6.43107604,0.051370241,-0.13921509,0.166732788,17.1279904,-20.5755618,-46.242981
8.05647E+12,0.07608032,1.9481354,5.9562073,0.13070679,-0.05644226,0.20832825,17.269897,-20.33844,-45.9198,-0.335372924,1.45174866,6.2962921,0.088735964,-0.121276858,0.183743286,17.1752926,-20.4965212,-46.135254
8.05648E+12,0.34088135,2.1467133,5.98584,0.10083008,-0.015319824,0.20046997,17.269897,-20.33844,-45.9198,-0.143725584,1.6564026,6.1555115,0.10772095,-0.092971803,0.193676758,17.2225948,-20.4174806,-46.027527
8.05648E+12,0.57366943,2.2540894,6.2050323,0.047668457,0.02178955,0.17428589,16.860962,-19.93103,-46.318054,0.082678222,1.87283632,6.0781128,0.104544069,-0.057452393,0.194311524,17.18811,-20.256958,-45.9994508
8.05649E+12,0.64793396,2.31781,6.5653687,-0.013153076,0.052734375,0.13539124,16.860962,-19.93103,-46.318054,0.292810058,2.06247254,6.14226686,0.080029298,-0.019613648,0.183959962,17.106323,-20.175476,-46.0791016
8.05649E+12,0.52023315,2.2936249,7.064575,-0.0770874,0.07550049,0.08468628,16.860962,-19.93103,-46.318054,0.431759642,2.1920746,6.35540466,0.03779297,0.015652466,0.160632326,17.024536,-20.093994,-46.1587524
8.0565E+12,0.30111694,2.2477264,7.642456,-0.13523865,0.08255005,0.025421143,16.860962,-19.93103,-46.318054,0.476766966,2.2519928,6.6926544,-0.015396118,0.043450928,0.124050905,16.942749,-20.012512,-46.2384032
8.0565E+12,0.004638672,2.1503754,8.132355,-0.17582703,0.07194519,-0.033218384,16.061401,-21.217346,-46.691895,0.40951843,2.25272522,7.1219574,-0.07072754,0.060903931,0.077313234,16.7010498,-20.1882932,-46.3928222
8.05651E+12,-0.3222351,1.9674988,8.494537,-0.1943512,0.043884277,-0.087905884,16.061401,-21.217346,-46.691895,0.230337524,2.1954071,7.57985834,-0.119131471,0.065322876,0.024874879,16.5411376,-20.4455564,-46.4675904
8.05651E+12,-0.57173157,1.763382,8.868851,-0.18998718,5.19E-04,-0.1335907,16.061401,-21.217346,-46.691895,-0.013595582,2.0845215,8.0405548,-0.154498292,0.054879761,-0.028921509,16.3812254,-20.7028196,-46.5423586
8.05652E+12,-0.7931824,1.6165466,9.279129,-0.17253113,-0.050872803,-0.16156006,16.061401,-21.217346,-46.691895,-0.276278692,1.94910584,8.4834656,-0.173587038,0.029605103,-0.078170777,16.2213132,-20.9600828,-46.6171268
8.05653E+12,-1.0086212,1.510086,9.813293,-0.15437317,-0.106048584,-0.17524719,15.725708,-22.227478,-46.757507,-0.53822632,1.80157776,8.917633,-0.177413942,-0.008114624,-0.118304444,15.9942624,-21.4193724,-46.7050174
8.05653E+12,-1.1596985,1.4402008,10.224487,-0.13798523,-0.15908813,-0.17402649,15.725708,-22.227478,-46.757507,-0.771093754,1.65954284,9.3360594,-0.169845582,-0.054321288,-0.146466065,15.9271238,-21.6213988,-46.7181398
8.05654E+12,-1.1584625,1.384613,10.598694,-0.1210022,-0.20315552,-0.15835571,15.725708,-22.227478,-46.757507,-0.938339234,1.54296568,9.7568908,-0.155175782,-0.103729248,-0.16055603,15.8599852,-21.8234252,-46.7312622
8.05654E+12,-0.9692383,1.4548492,11.019012,-0.10069275,-0.24316406,-0.12988281,15.725708,-22.227478,-46.757507,-1.01784058,1.48125912,10.186923,-0.137316896,-0.152465819,-0.159814452,15.7928466,-22.0254516,-46.7443846
8.05655E+12,-0.64390564,1.6560516,11.492462,-0.08016968,-0.27897644,-0.0952301,15.609741,-21.426392,-47.314453,-0.987985228,1.48916012,10.6295896,-0.118844606,-0.198086547,-0.14654846,15.7025146,-22.0672608,-46.8688962
8.05655E+12,-0.33143616,1.812149,12.142105,-0.062805176,-0.3151245,-0.06561279,15.609741,-21.426392,-47.314453,-0.85254822,1.54957272,11.095352,-0.100531007,-0.23990173,-0.12462158,15.6793212,-21.9070436,-46.9802854
8.05656E+12,-0.034622192,1.8751678,12.65654,-0.04321289,-0.34840393,-0.047714233,15.609741,-21.426392,-47.314453,-0.627532958,1.63656612,11.5817626,-0.081576539,-0.27776489,-0.099359129,15.6561278,-21.7468264,-47.0916746
8.05656E+12,0.18927002,1.8073425,12.8832245,-0.025756836,-0.3637848,-0.0440979,15.609741,-21.426392,-47.314453,-0.357986454,1.72111202,12.0386687,-0.062527466,-0.309890746,-0.076507567,15.6329344,-21.5866092,-47.2030638
8.05657E+12,0.26089478,1.7250977,12.878387,-0.013397217,-0.35139465,-0.05027771,15.6692505,-20.213318,-46.34857,-0.111959838,1.77516172,12.4105437,-0.04506836,-0.331536864,-0.060586547,15.6216429,-21.1837772,-47.1212764
8.05657E+12,0.23069763,1.6873627,12.926331,-0.015228272,-0.3086548,-0.064453125,15.6692505,-20.213318,-46.34857,0.062960816,1.78142394,12.6973175,-0.032080078,-0.337472536,-0.054431152,15.6335448,-20.9411624,-46.9280998
8.05658E+12,0.1934967,1.7515259,13.102951,-0.047683716,-0.24279785,-0.084472656,15.6692505,-20.213318,-46.34857,0.167947388,1.76929932,12.8894867,-0.029055786,-0.323007206,-0.058203125,15.6454467,-20.6985476,-46.7349232
8.05658E+12,0.27368164,1.8010406,13.500504,-0.10671997,-0.16053772,-0.10699463,15.6692505,-20.213318,-46.34857,0.229608154,1.75447388,13.0582795,-0.041757202,-0.285433964,-0.070059204,15.6573486,-20.4559328,-46.5417466
8.05659E+12,0.2836609,1.7827759,14.009476,-0.18418884,-0.07055664,-0.12808228,15.725708,-19.822693,-45.751953,0.24848633,1.74956056,13.2835298,-0.073443603,-0.226788332,-0.08685608,15.680542,-20.135193,-46.2292466
8.05659E+12,0.1774292,1.7496033,14.494034,-0.26409912,0.01260376,-0.15370178,15.725708,-19.822693,-45.751953,0.231793214,1.75446168,13.6066592,-0.123583984,-0.15398865,-0.107540894,15.6918335,-20.057068,-46.1099232
8.0566E+12,-0.008102417,1.7757874,15.103668,-0.32763672,0.07910156,-0.18185425,15.725708,-19.822693,-45.751953,0.184033205,1.77214662,14.0421266,-0.186065673,-0.076437378,-0.131021119,15.703125,-19.978943,-45.9905998
8.0566E+12,-0.22875977,1.7339783,15.530273,-0.3781433,0.13710022,-0.21424866,15.725708,-19.822693,-45.751953,0.099581911,1.7686371,14.527591,-0.25215759,-0.000457764,-0.15697632,15.7144165,-19.900818,-45.8712764
8.05661E+12,-0.41764832,1.585907,15.862183,-0.39631653,0.1639862,-0.23883057,16.230774,-20.83435,-48.2193,-0.038684081,1.72561038,14.9999268,-0.310076902,0.06444702,-0.183343508,15.8267212,-20.0250244,-46.2454224
8.05661E+12,-0.5793762,1.3266449,15.934631,-0.37345886,0.15838623,-0.25335693,16.230774,-20.83435,-48.2193,-0.211291501,1.63438418,15.3849578,-0.347930906,0.110235594,-0.208398438,15.9277344,-20.2273558,-46.7388918
8.05662E+12,-0.638443,1.1297302,15.877869,-0.3140564,0.12420654,-0.25543213,16.230774,-20.83435,-48.2193,-0.374465941,1.51040956,15.6617248,-0.357922362,0.13255615,-0.228744508,16.0287476,-20.4296872,-47.2323612
8.05662E+12,-0.6542511,1.0033264,15.751465,-0.3140564,0.12420654,-0.25543213,16.230774,-20.83435,-48.2193,-0.503695678,1.35591736,15.7912842,-0.355206298,0.141577146,-0.243460084,16.1297608,-20.6320186,-47.7258306
8.05663E+12,-0.6839447,0.89250183,15.50444,-0.1394043,0.0052948,-0.22909546,15.258789,-19.789124,-47.97821,-0.594732664,1.187622066,15.7861176,-0.307458498,0.115216062,-0.246429444,16.036377,-20.6253048,-48.171082
8.05663E+12,-0.6458435,0.759079,15.128891,-0.04145813,-0.06599426,-0.19989014,15.258789,-19.789124,-47.97821,-0.6403717,1.022256466,15.6394592,-0.236486818,0.06921997,-0.238641358,15.84198,-20.4162596,-48.122864
8.05664E+12,-0.40971375,0.89878845,14.665924,0.041641235,-0.12937927,-0.16036987,15.258789,-19.789124,-47.97821,-0.60643921,0.936685176,15.3857178,-0.153466799,0.01166687,-0.220043946,15.647583,-20.2072144,-48.074646
8.05664E+12,-0.004226685,1.1001129,14.015564,0.112594604,-0.1915741,-0.12062073,14.866638,-19.308472,-47.595215,-0.479595947,0.930761716,15.0132568,-0.068136598,-0.051489258,-0.193081666,15.3747558,-19.9020388,-47.949829
8.05665E+12,0.3973236,1.3583221,13.398071,0.16365051,-0.2518921,-0.08760071,14.866638,-19.308472,-47.595215,-0.269281007,1.001760856,14.542578,0.027404784,-0.126708986,-0.159515382,15.1019286,-19.5968632,-47.825012
8.05665E+12,0.83114624,1.6367493,12.991974,0.18388367,-0.30775452,-0.0690155,14.866638,-19.308472,-47.595215,0.033737181,1.15061035,14.0400848,0.092062378,-0.18931885,-0.12749939,15.0234984,-19.5007328,-47.748413
8.05666E+12,1.2351837,1.9511261,12.893143,0.17074585,-0.35868835,-0.07485962,14.866638,-19.308472,-47.595215,0.409942621,1.38901977,13.5929352,0.134503174,-0.247857668,-0.102493286,14.9450682,-19.4046024,-47.671814
8.05666E+12,1.4337463,2.0842743,12.942871,0.1174469,-0.4076538,-0.111587524,15.005493,-19.447327,-48.539734,0.778634631,1.62611694,13.2483246,0.149664307,-0.303512574,-0.092736817,14.894409,-19.336243,-47.7841188
8.05667E+12,1.4552307,2.0234985,13.224091,0.039245605,-0.44673157,-0.17092896,15.005493,-19.447327,-48.539734,1.070526108,1.81079406,13.09003,0.134994507,-0.354544068,-0.102798463,14.92218,-19.364014,-47.9730226
8.05667E+12,1.350357,1.8940277,13.647583,-0.05543518,-0.4693451,-0.25273132,15.005493,-19.447327,-48.539734,1.261132788,1.91793518,13.1399324,0.091177369,-0.398034668,-0.135824585,14.949951,-19.391785,-48.1619264
8.05668E+12,1.1789398,1.7369995,14.14241,-0.16119385,-0.46728516,-0.34458923,15.005493,-19.447327,-48.539734,1.3306915,1.93798522,13.3700196,0.022161865,-0.429940796,-0.190939331,14.977722,-19.419556,-48.3508302
8.05668E+12,0.9268646,1.580246,14.601227,-0.27085876,-0.43559265,-0.43385315,16.296387,-19.621277,-48.35968,1.26902768,1.8638092,13.7116364,-0.066159057,-0.445321656,-0.262738037,15.2636718,-19.482117,-48.5037232
8.05669E+12,0.5389252,1.2860107,15.092621,-0.37834167,-0.37841797,-0.51719666,16.296387,-19.621277,-48.35968,1.09006346,1.70415648,14.1415864,-0.165316771,-0.43947449,-0.343859864,15.5218506,-19.516907,-48.4677124
8.05669E+12,0.04725647,0.8787384,15.529999,-0.48143005,-0.30473328,-0.5988159,16.296387,-19.621277,-48.35968,0.808468614,1.47520446,14.602768,-0.269451902,-0.411074832,-0.429437252,15.7800294,-19.551697,-48.4317016
8.0567E+12,-0.57829285,0.37423706,15.957596,-0.55610657,-0.2375946,-0.65974426,16.296387,-19.621277,-48.35968,0.422738644,1.171246332,15.0647706,-0.36958618,-0.364724732,-0.51083984,16.0382082,-19.586487,-48.3956908
8.0567E+12,-1.23732,-0.12162781,16.369034,-0.6004791,-0.18330383,-0.6995697,16.583252,-19.651794,-48.2666,-0.060513316,0.79952087,15.5100954,-0.45744323,-0.307928466,-0.581835934,16.35376,-19.6273804,-48.341064
8.05671E+12,-1.8148346,-0.5359192,16.723938,-0.6057434,-0.14820862,-0.7085571,16.583252,-19.651794,-48.2666,-0.608853156,0.37628783,15.9346376,-0.524420158,-0.25045166,-0.636776724,16.411133,-19.6334838,-48.322448
8.05671E+12,-2.1936493,-0.93388367,16.959091,-0.57276917,-0.13294983,-0.6835785,16.583252,-19.651794,-48.2666,-1.155368056,-0.067691044,16.3079316,-0.563305658,-0.201358032,-0.670053092,16.468506,-19.6395872,-48.303832
8.05672E+12,-2.3482056,-1.1992188,16.920242,-0.5024719,-0.13298035,-0.6217804,16.583252,-19.651794,-48.2666,-1.63446047,-0.483282484,16.5859802,-0.567514028,-0.167007446,-0.674645992,16.525879,-19.6456906,-48.285216
8.05672E+12,-2.2640076,-1.2697449,16.559052,-0.39163208,-0.13807678,-0.52119446,15.3793335,-19.651794,-48.85254,-1.97160342,-0.812078876,16.7062714,-0.53461913,-0.147103882,-0.646936032,16.3424683,-19.651794,-48.383788
8.05673E+12,-1.9209595,-1.1711273,15.894226,-0.2611084,-0.14241028,-0.40222168,15.3793335,-19.651794,-48.85254,-2.10833132,-1.021978774,16.6113098,-0.46674499,-0.138925172,-0.587466428,16.1016846,-19.651794,-48.500976
8.05673E+12,-1.3869171,-0.9164429,14.874634,-0.11903381,-0.14276123,-0.27264404,15.3793335,-19.651794,-48.85254,-2.02274782,-1.098083514,16.241449,-0.369403072,-0.137835694,-0.500283816,15.8609009,-19.651794,-48.618164
8.05674E+12,-0.82699585,-0.57902527,13.712875,0.020050049,-0.14057922,-0.14251709,15.3793335,-19.651794,-48.85254,-1.74941713,-1.027111834,15.5922058,-0.250839228,-0.139361572,-0.392071534,15.6201172,-19.651794,-48.735352
8.05674E+12,-0.26239014,-0.19932556,12.499466,0.13859558,-0.14202881,-0.03086853,14.906311,-17.530823,-47.75238,-1.332254038,-0.827133186,14.7080506,-0.122625732,-0.141171264,-0.27388916,15.284729,-19.2275998,-48.632508
8.05675E+12,0.20402527,0.110961914,11.316956,0.23709106,-0.15402222,0.06303406,14.906311,-17.530823,-47.75238,-0.838647464,-0.550991823,13.6596314,0.003118896,-0.144360352,-0.157043456,15.1901245,-18.8034056,-48.412476
